# t qw qx qy qz x y z vx vy vz p q r ax ay az
0 0.811978 -0.00880198 0.0114107 0.583511 2.63581 27.5626 13.0238 13.0348 -0.873047 0.0116332 -0.0082899 0.0167745 0.206126 -0.897126 1.15423 -0.00627064 
0.001 0.811917 -0.00880907 0.011416 0.583594 2.64885 27.5617 13.0238 13.0335 -0.873525 0.0116516 -0.00830646 0.016808 0.206537 -0.889426 1.1544 -0.00614291 
0.002 0.811857 -0.00881617 0.0114213 0.583678 2.66188 27.5609 13.0238 13.0321 -0.873997 0.0116699 -0.00832299 0.0168415 0.206948 -0.881722 1.15457 -0.00601491 
0.003 0.811796 -0.00882329 0.0114266 0.583762 2.67491 27.56 13.0239 13.0307 -0.874461 0.0116881 -0.00833949 0.0168749 0.207359 -0.874011 1.15474 -0.00588664 
0.004 0.811736 -0.00883043 0.011432 0.583846 2.68794 27.5591 13.0239 13.0293 -0.874918 0.0117063 -0.00835595 0.0169083 0.207768 -0.866296 1.15491 -0.00575811 
0.005 0.811675 -0.00883757 0.0114373 0.583931 2.70097 27.5582 13.0239 13.028 -0.875368 0.0117243 -0.00837238 0.0169416 0.208176 -0.858575 1.15508 -0.00562932 
0.006 0.811614 -0.00884473 0.0114427 0.584015 2.714 27.5574 13.0239 13.0266 -0.875812 0.0117423 -0.00838877 0.0169749 0.208584 -0.850849 1.15525 -0.00550027 
0.007 0.811553 -0.00885191 0.011448 0.5841 2.72702 27.5565 13.0239 13.0252 -0.876248 0.0117602 -0.00840513 0.0170081 0.208991 -0.843118 1.15542 -0.00537095 
0.008 0.811491 -0.0088591 0.0114534 0.584185 2.74005 27.5556 13.0239 13.0239 -0.876677 0.0117781 -0.00842145 0.0170413 0.209397 -0.835381 1.15559 -0.00524137 
0.009 0.81143 -0.0088663 0.0114588 0.58427 2.75307 27.5547 13.0239 13.0225 -0.877098 0.0117958 -0.00843775 0.0170744 0.209802 -0.82764 1.15576 -0.00511153 
0.01 0.811369 -0.00887351 0.0114642 0.584355 2.76609 27.5538 13.0239 13.0212 -0.877513 0.0118135 -0.008454 0.0171074 0.210206 -0.819893 1.15592 -0.00498142 
0.011 0.811307 -0.00888074 0.0114696 0.58444 2.77911 27.553 13.0239 13.0198 -0.877921 0.0118311 -0.00847023 0.0171405 0.21061 -0.812141 1.15609 -0.00485106 
0.012 0.811245 -0.00888799 0.011475 0.584526 2.79213 27.5521 13.024 13.0184 -0.878321 0.0118485 -0.00848642 0.0171734 0.211012 -0.804385 1.15625 -0.00472043 
0.013 0.811183 -0.00889525 0.0114805 0.584612 2.80515 27.5512 13.024 13.0171 -0.878714 0.011866 -0.00850257 0.0172063 0.211414 -0.796623 1.15642 -0.00458955 
0.014 0.811121 -0.00890252 0.0114859 0.584697 2.81817 27.5503 13.024 13.0157 -0.879101 0.0118833 -0.0085187 0.0172392 0.211815 -0.788857 1.15658 -0.0044584 
0.015 0.811059 -0.0089098 0.0114914 0.584783 2.83118 27.5495 13.024 13.0144 -0.87948 0.0119005 -0.00853478 0.017272 0.212215 -0.781086 1.15675 -0.00432699 
0.016 0.810997 -0.0089171 0.0114968 0.584869 2.8442 27.5486 13.024 13.0131 -0.879851 0.0119177 -0.00855084 0.0173048 0.212615 -0.77331 1.15691 -0.00419533 
0.017 0.810935 -0.00892441 0.0115023 0.584956 2.85721 27.5477 13.024 13.0117 -0.880216 0.0119348 -0.00856686 0.0173375 0.213013 -0.765529 1.15707 -0.0040634 
0.018 0.810872 -0.00893174 0.0115078 0.585042 2.87022 27.5468 13.024 13.0104 -0.880574 0.0119518 -0.00858285 0.0173701 0.213411 -0.757744 1.15723 -0.00393121 
0.019 0.810809 -0.00893908 0.0115132 0.585129 2.88323 27.5459 13.024 13.009 -0.880924 0.0119687 -0.0085988 0.0174027 0.213807 -0.749954 1.15739 -0.00379877 
0.02 0.810747 -0.00894643 0.0115188 0.585215 2.89624 27.5451 13.0241 13.0077 -0.881268 0.0119855 -0.00861472 0.0174353 0.214203 -0.742159 1.15755 -0.00366607 
0.021 0.810684 -0.0089538 0.0115243 0.585302 2.90925 27.5442 13.0241 13.0064 -0.881604 0.0120022 -0.0086306 0.0174678 0.214598 -0.73436 1.1577 -0.00353311 
0.022 0.810621 -0.00896118 0.0115298 0.585389 2.92225 27.5433 13.0241 13.005 -0.881933 0.0120189 -0.00864646 0.0175003 0.214993 -0.726556 1.15786 -0.00339989 
0.023 0.810558 -0.00896857 0.0115353 0.585476 2.93526 27.5424 13.0241 13.0037 -0.882254 0.0120355 -0.00866227 0.0175327 0.215386 -0.718748 1.15801 -0.00326642 
0.024 0.810494 -0.00897598 0.0115409 0.585564 2.94826 27.5415 13.0241 13.0024 -0.882569 0.0120519 -0.00867806 0.017565 0.215779 -0.710936 1.15817 -0.00313269 
0.025 0.810431 -0.0089834 0.0115464 0.585651 2.96126 27.5406 13.0241 13.0011 -0.882876 0.0120683 -0.00869381 0.0175973 0.216171 -0.703119 1.15832 -0.0029987 
0.026 0.810368 -0.00899084 0.011552 0.585739 2.97426 27.5398 13.0241 12.9998 -0.883177 0.0120847 -0.00870952 0.0176296 0.216561 -0.695299 1.15847 -0.00286446 
0.027 0.810304 -0.00899829 0.0115575 0.585827 2.98726 27.5389 13.0241 12.9984 -0.88347 0.0121009 -0.00872521 0.0176618 0.216952 -0.687473 1.15863 -0.00272996 
0.028 0.81024 -0.00900575 0.0115631 0.585915 3.00026 27.538 13.0242 12.9971 -0.883756 0.012117 -0.00874085 0.0176939 0.217341 -0.679644 1.15878 -0.00259521 
0.029 0.810176 -0.00901322 0.0115687 0.586003 3.01325 27.5371 13.0242 12.9958 -0.884034 0.0121331 -0.00875647 0.017726 0.217729 -0.671811 1.15892 -0.0024602 
0.03 0.810112 -0.00902071 0.0115743 0.586091 3.02625 27.5362 13.0242 12.9945 -0.884306 0.0121491 -0.00877205 0.0177581 0.218117 -0.663973 1.15907 -0.00232494 
0.031 0.810048 -0.00902821 0.0115799 0.586179 3.03924 27.5353 13.0242 12.9932 -0.88457 0.012165 -0.0087876 0.0177901 0.218504 -0.656132 1.15922 -0.00218942 
0.032 0.809984 -0.00903573 0.0115855 0.586268 3.05224 27.5345 13.0242 12.9919 -0.884827 0.0121808 -0.00880311 0.017822 0.21889 -0.648286 1.15937 -0.00205366 
0.033 0.80992 -0.00904325 0.0115912 0.586357 3.06523 27.5336 13.0242 12.9906 -0.885077 0.0121965 -0.00881859 0.0178539 0.219275 -0.640437 1.15951 -0.00191763 
0.034 0.809855 -0.0090508 0.0115968 0.586446 3.07822 27.5327 13.0242 12.9893 -0.885319 0.0122121 -0.00883404 0.0178858 0.219659 -0.632584 1.15965 -0.00178136 
0.035 0.80979 -0.00905835 0.0116025 0.586535 3.09121 27.5318 13.0242 12.988 -0.885555 0.0122277 -0.00884945 0.0179175 0.220042 -0.624727 1.1598 -0.00164483 
0.036 0.809726 -0.00906592 0.0116081 0.586624 3.10419 27.5309 13.0242 12.9867 -0.885783 0.0122431 -0.00886483 0.0179493 0.220425 -0.616866 1.15994 -0.00150806 
0.037 0.809661 -0.0090735 0.0116138 0.586713 3.11718 27.53 13.0243 12.9854 -0.886004 0.0122585 -0.00888017 0.017981 0.220807 -0.609001 1.16008 -0.00137103 
0.038 0.809596 -0.00908109 0.0116195 0.586802 3.13016 27.5291 13.0243 12.9841 -0.886217 0.0122738 -0.00889548 0.0180126 0.221187 -0.601133 1.16021 -0.00123375 
0.039 0.809531 -0.0090887 0.0116252 0.586892 3.14315 27.5283 13.0243 12.9828 -0.886424 0.012289 -0.00891076 0.0180442 0.221568 -0.593261 1.16035 -0.00109622 
0.04 0.809466 -0.00909632 0.0116309 0.586982 3.15613 27.5274 13.0243 12.9815 -0.886623 0.0123041 -0.008926 0.0180758 0.221947 -0.585386 1.16049 -0.000958443 
0.041 0.8094 -0.00910396 0.0116366 0.587072 3.16911 27.5265 13.0243 12.9803 -0.886815 0.0123191 -0.00894121 0.0181072 0.222325 -0.577507 1.16062 -0.000820415 
0.042 0.809335 -0.0091116 0.0116423 0.587162 3.18209 27.5256 13.0243 12.979 -0.887 0.0123341 -0.00895639 0.0181387 0.222703 -0.569624 1.16075 -0.000682139 
0.043 0.809269 -0.00911926 0.011648 0.587252 3.19507 27.5247 13.0243 12.9777 -0.887177 0.0123489 -0.00897153 0.0181701 0.223079 -0.561738 1.16089 -0.000543615 
0.044 0.809203 -0.00912693 0.0116538 0.587342 3.20804 27.5238 13.0243 12.9764 -0.887347 0.0123637 -0.00898664 0.0182014 0.223455 -0.553849 1.16102 -0.000404843 
0.045 0.809138 -0.00913462 0.0116595 0.587432 3.22102 27.5229 13.0244 12.9751 -0.88751 0.0123784 -0.00900171 0.0182327 0.22383 -0.545957 1.16115 -0.000265824 
0.046 0.809072 -0.00914232 0.0116653 0.587523 3.234 27.522 13.0244 12.9739 -0.887666 0.012393 -0.00901675 0.0182639 0.224205 -0.538061 1.16127 -0.000126559 
0.047 0.809006 -0.00915003 0.011671 0.587614 3.24697 27.5212 13.0244 12.9726 -0.887814 0.0124075 -0.00903176 0.0182951 0.224578 -0.530162 1.1614 1.29531e-05 
0.048 0.808939 -0.00915775 0.0116768 0.587705 3.25994 27.5203 13.0244 12.9713 -0.887956 0.0124219 -0.00904673 0.0183262 0.22495 -0.52226 1.16152 0.00015271 
0.049 0.808873 -0.00916549 0.0116826 0.587796 3.27291 27.5194 13.0244 12.9701 -0.888089 0.0124362 -0.00906167 0.0183573 0.225322 -0.514355 1.16165 0.000292713 
0.05 0.808807 -0.00917324 0.0116884 0.587887 3.28588 27.5185 13.0244 12.9688 -0.888216 0.0124505 -0.00907658 0.0183884 0.225693 -0.506446 1.16177 0.00043296 
0.051 0.80874 -0.00918101 0.0116942 0.587978 3.29885 27.5176 13.0244 12.9675 -0.888335 0.0124646 -0.00909145 0.0184193 0.226063 -0.498535 1.16189 0.000573451 
0.052 0.808673 -0.00918878 0.0117 0.58807 3.31182 27.5167 13.0244 12.9663 -0.888447 0.0124787 -0.00910629 0.0184503 0.226432 -0.490621 1.16201 0.000714185 
0.053 0.808607 -0.00919657 0.0117059 0.588161 3.32478 27.5158 13.0245 12.965 -0.888552 0.0124927 -0.00912109 0.0184811 0.226801 -0.482703 1.16212 0.000855162 
0.054 0.80854 -0.00920437 0.0117117 0.588253 3.33775 27.5149 13.0245 12.9638 -0.88865 0.0125066 -0.00913586 0.018512 0.227168 -0.474783 1.16224 0.000996382 
0.055 0.808473 -0.00921219 0.0117176 0.588345 3.35071 27.5141 13.0245 12.9625 -0.88874 0.0125204 -0.0091506 0.0185427 0.227535 -0.46686 1.16235 0.00113784 
0.056 0.808406 -0.00922001 0.0117234 0.588437 3.36367 27.5132 13.0245 12.9613 -0.888823 0.0125341 -0.00916531 0.0185735 0.227901 -0.458935 1.16247 0.00127955 
0.057 0.808338 -0.00922785 0.0117293 0.588529 3.37663 27.5123 13.0245 12.96 -0.888898 0.0125477 -0.00917998 0.0186041 0.228266 -0.451006 1.16258 0.00142149 
0.058 0.808271 -0.00923571 0.0117352 0.588621 3.38959 27.5114 13.0245 12.9588 -0.888967 0.0125612 -0.00919461 0.0186348 0.22863 -0.443075 1.16269 0.00156367 
0.059 0.808203 -0.00924357 0.011741 0.588714 3.40255 27.5105 13.0245 12.9576 -0.889028 0.0125747 -0.00920921 0.0186653 0.228993 -0.435142 1.16279 0.0017061 
0.06 0.808136 -0.00925145 0.0117469 0.588806 3.41551 27.5096 13.0245 12.9563 -0.889081 0.012588 -0.00922378 0.0186959 0.229356 -0.427205 1.1629 0.00184876 
0.061 0.808068 -0.00925934 0.0117528 0.588899 3.42846 27.5087 13.0246 12.9551 -0.889128 0.0126013 -0.00923832 0.0187263 0.229717 -0.419267 1.163 0.00199166 
0.062 0.808 -0.00926724 0.0117588 0.588992 3.44142 27.5078 13.0246 12.9538 -0.889167 0.0126145 -0.00925282 0.0187568 0.230078 -0.411325 1.16311 0.0021348 
0.063 0.807932 -0.00927516 0.0117647 0.589085 3.45437 27.5069 13.0246 12.9526 -0.889199 0.0126276 -0.00926729 0.0187871 0.230438 -0.403382 1.16321 0.00227817 
0.064 0.807864 -0.00928308 0.0117706 0.589178 3.46732 27.5061 13.0246 12.9514 -0.889223 0.0126406 -0.00928172 0.0188174 0.230797 -0.395436 1.1633 0.00242178 
0.065 0.807796 -0.00929103 0.0117766 0.589271 3.48027 27.5052 13.0246 12.9502 -0.88924 0.0126535 -0.00929612 0.0188477 0.231156 -0.387488 1.1634 0.00256563 
0.066 0.807728 -0.00929898 0.0117825 0.589365 3.49322 27.5043 13.0246 12.9489 -0.88925 0.0126663 -0.00931049 0.0188779 0.231513 -0.379537 1.1635 0.00270972 
0.067 0.807659 -0.00930694 0.0117885 0.589458 3.50617 27.5034 13.0246 12.9477 -0.889253 0.012679 -0.00932482 0.0189081 0.23187 -0.371584 1.16359 0.00285403 
0.068 0.807591 -0.00931492 0.0117944 0.589552 3.51912 27.5025 13.0246 12.9465 -0.889248 0.0126916 -0.00933912 0.0189382 0.232226 -0.363629 1.16368 0.00299859 
0.069 0.807522 -0.00932291 0.0118004 0.589646 3.53206 27.5016 13.0247 12.9453 -0.889236 0.0127042 -0.00935339 0.0189683 0.232581 -0.355672 1.16377 0.00314337 
0.07 0.807453 -0.00933091 0.0118064 0.58974 3.54501 27.5007 13.0247 12.9441 -0.889216 0.0127167 -0.00936762 0.0189983 0.232935 -0.347713 1.16386 0.00328839 
0.071 0.807384 -0.00933893 0.0118124 0.589834 3.55795 27.4998 13.0247 12.9428 -0.889189 0.012729 -0.00938182 0.0190282 0.233288 -0.339752 1.16395 0.00343364 
0.072 0.807315 -0.00934696 0.0118184 0.589928 3.57089 27.4989 13.0247 12.9416 -0.889155 0.0127413 -0.00939599 0.0190582 0.233641 -0.331789 1.16403 0.00357913 
0.073 0.807246 -0.009355 0.0118244 0.590022 3.58383 27.498 13.0247 12.9404 -0.889114 0.0127535 -0.00941012 0.019088 0.233992 -0.323824 1.16411 0.00372484 
0.074 0.807177 -0.00936305 0.0118305 0.590117 3.59677 27.4972 13.0247 12.9392 -0.889065 0.0127656 -0.00942422 0.0191178 0.234343 -0.315857 1.16419 0.00387078 
0.075 0.807108 -0.00937111 0.0118365 0.590211 3.60971 27.4963 13.0247 12.938 -0.889009 0.0127776 -0.00943828 0.0191476 0.234693 -0.307889 1.16427 0.00401696 
0.076 0.807038 -0.00937919 0.0118425 0.590306 3.62265 27.4954 13.0247 12.9368 -0.888946 0.0127895 -0.00945231 0.0191773 0.235042 -0.299918 1.16435 0.00416336 
0.077 0.806969 -0.00938728 0.0118486 0.590401 3.63559 27.4945 13.0248 12.9356 -0.888875 0.0128013 -0.00946631 0.019207 0.23539 -0.291946 1.16442 0.00430999 
0.078 0.806899 -0.00939538 0.0118547 0.590496 3.64852 27.4936 13.0248 12.9344 -0.888797 0.0128131 -0.00948028 0.0192366 0.235738 -0.283973 1.1645 0.00445685 
0.079 0.806829 -0.00940349 0.0118607 0.590591 3.66145 27.4927 13.0248 12.9332 -0.888711 0.0128247 -0.00949421 0.0192661 0.236084 -0.275997 1.16457 0.00460394 
0.08 0.806759 -0.00941162 0.0118668 0.590686 3.67439 27.4918 13.0248 12.932 -0.888618 0.0128362 -0.0095081 0.0192956 0.23643 -0.26802 1.16464 0.00475125 
0.081 0.806689 -0.00941976 0.0118729 0.590782 3.68732 27.4909 13.0248 12.9308 -0.888518 0.0128477 -0.00952197 0.0193251 0.236775 -0.260042 1.1647 0.00489879 
0.082 0.806619 -0.00942791 0.011879 0.590877 3.70025 27.4901 13.0248 12.9296 -0.888411 0.0128591 -0.0095358 0.0193545 0.237119 -0.252062 1.16477 0.00504655 
0.083 0.806549 -0.00943607 0.0118851 0.590973 3.71318 27.4892 13.0248 12.9285 -0.888296 0.0128703 -0.00954959 0.0193838 0.237463 -0.244081 1.16483 0.00519454 
0.084 0.806478 -0.00944424 0.0118912 0.591069 3.72611 27.4883 13.0249 12.9273 -0.888174 0.0128815 -0.00956336 0.0194131 0.237805 -0.236098 1.16489 0.00534275 
0.085 0.806408 -0.00945243 0.0118974 0.591165 3.73903 27.4874 13.0249 12.9261 -0.888044 0.0128926 -0.00957708 0.0194424 0.238147 -0.228114 1.16495 0.00549118 
0.086 0.806337 -0.00946062 0.0119035 0.591261 3.75196 27.4865 13.0249 12.9249 -0.887907 0.0129036 -0.00959078 0.0194716 0.238487 -0.220129 1.16501 0.00563984 
0.087 0.806266 -0.00946883 0.0119097 0.591357 3.76488 27.4856 13.0249 12.9237 -0.887763 0.0129145 -0.00960444 0.0195007 0.238827 -0.212143 1.16506 0.00578872 
0.088 0.806196 -0.00947706 0.0119158 0.591453 3.77781 27.4847 13.0249 12.9226 -0.887611 0.0129253 -0.00961807 0.0195298 0.239166 -0.204156 1.16511 0.00593781 
0.089 0.806125 -0.00948529 0.011922 0.59155 3.79073 27.4838 13.0249 12.9214 -0.887452 0.012936 -0.00963167 0.0195589 0.239505 -0.196167 1.16516 0.00608713 
0.09 0.806054 -0.00949353 0.0119282 0.591646 3.80365 27.4829 13.0249 12.9202 -0.887286 0.0129467 -0.00964523 0.0195879 0.239842 -0.188177 1.16521 0.00623667 
0.091 0.805982 -0.00950179 0.0119343 0.591743 3.81657 27.4821 13.0249 12.9191 -0.887112 0.0129572 -0.00965876 0.0196168 0.240179 -0.180187 1.16525 0.00638642 
0.092 0.805911 -0.00951006 0.0119405 0.59184 3.82949 27.4812 13.025 12.9179 -0.886931 0.0129676 -0.00967225 0.0196457 0.240514 -0.172195 1.1653 0.0065364 
0.093 0.80584 -0.00951834 0.0119467 0.591937 3.8424 27.4803 13.025 12.9167 -0.886743 0.012978 -0.00968571 0.0196746 0.240849 -0.164203 1.16534 0.00668659 
0.094 0.805768 -0.00952663 0.011953 0.592034 3.85532 27.4794 13.025 12.9156 -0.886547 0.0129882 -0.00969914 0.0197033 0.241183 -0.15621 1.16538 0.006837 
0.095 0.805697 -0.00953494 0.0119592 0.592131 3.86824 27.4785 13.025 12.9144 -0.886344 0.0129984 -0.00971253 0.0197321 0.241517 -0.148216 1.16541 0.00698762 
0.096 0.805625 -0.00954326 0.0119654 0.592228 3.88115 27.4776 13.025 12.9133 -0.886134 0.0130085 -0.00972589 0.0197608 0.241849 -0.140221 1.16545 0.00713846 
0.097 0.805553 -0.00955158 0.0119716 0.592326 3.89406 27.4767 13.025 12.9121 -0.885916 0.0130184 -0.00973922 0.0197894 0.242181 -0.132225 1.16548 0.00728951 
0.098 0.805481 -0.00955992 0.0119779 0.592423 3.90697 27.4759 13.025 12.911 -0.885691 0.0130283 -0.00975251 0.019818 0.242511 -0.124229 1.16551 0.00744077 
0.099 0.805409 -0.00956828 0.0119841 0.592521 3.91988 27.475 13.025 12.9098 -0.885458 0.0130381 -0.00976577 0.0198465 0.242841 -0.116232 1.16554 0.00759225 
0.1 0.805337 -0.00957664 0.0119904 0.592619 3.93279 27.4741 13.0251 12.9087 -0.885218 0.0130478 -0.009779 0.019875 0.24317 -0.108235 1.16556 0.00774394 
0.101 0.805265 -0.00958501 0.0119967 0.592717 3.9457 27.4732 13.0251 12.9075 -0.884971 0.0130574 -0.00979219 0.0199035 0.243499 -0.100237 1.16559 0.00789584 
0.102 0.805192 -0.0095934 0.012003 0.592815 3.95861 27.4723 13.0251 12.9064 -0.884716 0.0130669 -0.00980535 0.0199319 0.243826 -0.0922393 1.16561 0.00804795 
0.103 0.80512 -0.0096018 0.0120093 0.592913 3.97151 27.4714 13.0251 12.9052 -0.884454 0.0130763 -0.00981848 0.0199602 0.244153 -0.0842407 1.16563 0.00820027 
0.104 0.805047 -0.00961021 0.0120156 0.593011 3.98442 27.4705 13.0251 12.9041 -0.884185 0.0130856 -0.00983157 0.0199885 0.244478 -0.0762418 1.16564 0.0083528 
0.105 0.804974 -0.00961863 0.0120219 0.59311 3.99732 27.4697 13.0251 12.903 -0.883908 0.0130948 -0.00984463 0.0200167 0.244803 -0.0682427 1.16565 0.00850553 
0.106 0.804902 -0.00962706 0.0120282 0.593208 4.01022 27.4688 13.0251 12.9018 -0.883624 0.013104 -0.00985766 0.0200449 0.245127 -0.0602433 1.16566 0.00865848 
0.107 0.804829 -0.0096355 0.0120345 0.593307 4.02313 27.4679 13.0252 12.9007 -0.883333 0.013113 -0.00987065 0.020073 0.24545 -0.0522437 1.16567 0.00881163 
0.108 0.804756 -0.00964396 0.0120409 0.593406 4.03603 27.467 13.0252 12.8996 -0.883034 0.0131219 -0.00988361 0.0201011 0.245773 -0.044244 1.16568 0.00896498 
0.109 0.804682 -0.00965243 0.0120472 0.593505 4.04892 27.4661 13.0252 12.8985 -0.882727 0.0131308 -0.00989654 0.0201291 0.246094 -0.0362443 1.16568 0.00911854 
0.11 0.804609 -0.00966091 0.0120536 0.593604 4.06182 27.4652 13.0252 12.8973 -0.882414 0.0131395 -0.00990943 0.0201571 0.246415 -0.0282445 1.16568 0.0092723 
0.111 0.804536 -0.0096694 0.0120599 0.593703 4.07472 27.4644 13.0252 12.8962 -0.882093 0.0131482 -0.00992229 0.020185 0.246735 -0.0202447 1.16568 0.00942627 
0.112 0.804462 -0.0096779 0.0120663 0.593802 4.08762 27.4635 13.0252 12.8951 -0.881765 0.0131567 -0.00993512 0.0202129 0.247054 -0.012245 1.16568 0.00958043 
0.113 0.804389 -0.00968641 0.0120727 0.593902 4.10051 27.4626 13.0252 12.894 -0.881429 0.0131652 -0.00994791 0.0202407 0.247372 -0.00424548 1.16567 0.0097348 
0.114 0.804315 -0.00969493 0.0120791 0.594001 4.1134 27.4617 13.0252 12.8929 -0.881086 0.0131735 -0.00996067 0.0202685 0.247689 0.00375389 1.16566 0.00988937 
0.115 0.804241 -0.00970347 0.0120855 0.594101 4.1263 27.4608 13.0253 12.8917 -0.880735 0.0131818 -0.00997339 0.0202962 0.248006 0.011753 1.16565 0.0100441 
0.116 0.804167 -0.00971202 0.0120919 0.5942 4.13919 27.46 13.0253 12.8906 -0.880378 0.01319 -0.00998609 0.0203239 0.248322 0.0197519 1.16564 0.0101991 
0.117 0.804093 -0.00972057 0.0120983 0.5943 4.15208 27.4591 13.0253 12.8895 -0.880012 0.0131981 -0.00999874 0.0203515 0.248636 0.0277504 1.16562 0.0103543 
0.118 0.804019 -0.00972914 0.0121047 0.5944 4.16497 27.4582 13.0253 12.8884 -0.87964 0.013206 -0.0100114 0.0203791 0.248951 0.0357486 1.1656 0.0105096 
0.119 0.803945 -0.00973772 0.0121111 0.5945 4.17785 27.4573 13.0253 12.8873 -0.87926 0.0132139 -0.010024 0.0204066 0.249264 0.0437463 1.16558 0.0106652 
0.12 0.803871 -0.00974631 0.0121176 0.594601 4.19074 27.4564 13.0253 12.8862 -0.878873 0.0132217 -0.0100365 0.0204341 0.249576 0.0517435 1.16556 0.0108209 
0.121 0.803796 -0.00975492 0.012124 0.594701 4.20363 27.4556 13.0253 12.8851 -0.878478 0.0132294 -0.010049 0.0204615 0.249888 0.0597402 1.16553 0.0109769 
0.122 0.803722 -0.00976353 0.0121305 0.594801 4.21651 27.4547 13.0253 12.884 -0.878076 0.013237 -0.0100615 0.0204889 0.250198 0.0677363 1.1655 0.011133 
0.123 0.803647 -0.00977215 0.0121369 0.594902 4.22939 27.4538 13.0254 12.8829 -0.877667 0.0132445 -0.010074 0.0205162 0.250508 0.0757317 1.16547 0.0112894 
0.124 0.803572 -0.00978079 0.0121434 0.595003 4.24228 27.4529 13.0254 12.8818 -0.87725 0.0132519 -0.0100864 0.0205435 0.250817 0.0837265 1.16543 0.0114459 
0.125 0.803498 -0.00978944 0.0121499 0.595103 4.25516 27.452 13.0254 12.8808 -0.876826 0.0132592 -0.0100988 0.0205707 0.251125 0.0917205 1.16539 0.0116026 
0.126 0.803423 -0.0097981 0.0121564 0.595204 4.26804 27.4512 13.0254 12.8797 -0.876394 0.0132664 -0.0101112 0.0205979 0.251433 0.0997137 1.16535 0.0117595 
0.127 0.803348 -0.00980676 0.0121629 0.595305 4.28092 27.4503 13.0254 12.8786 -0.875956 0.0132735 -0.0101235 0.020625 0.251739 0.107706 1.16531 0.0119166 
0.128 0.803272 -0.00981544 0.0121694 0.595406 4.2938 27.4494 13.0254 12.8775 -0.875509 0.0132805 -0.0101358 0.020652 0.252045 0.115698 1.16526 0.0120739 
0.129 0.803197 -0.00982414 0.0121759 0.595508 4.30667 27.4485 13.0254 12.8764 -0.875056 0.0132875 -0.0101481 0.020679 0.252349 0.123688 1.16521 0.0122313 
0.13 0.803122 -0.00983284 0.0121825 0.595609 4.31955 27.4477 13.0255 12.8753 -0.874595 0.0132943 -0.0101603 0.020706 0.252653 0.131678 1.16516 0.012389 
0.131 0.803046 -0.00984155 0.012189 0.595711 4.33242 27.4468 13.0255 12.8743 -0.874127 0.013301 -0.0101725 0.0207329 0.252957 0.139666 1.16511 0.0125468 
0.132 0.802971 -0.00985027 0.0121955 0.595812 4.3453 27.4459 13.0255 12.8732 -0.873651 0.0133076 -0.0101846 0.0207598 0.253259 0.147653 1.16505 0.0127049 
0.133 0.802895 -0.00985901 0.0122021 0.595914 4.35817 27.445 13.0255 12.8721 -0.873168 0.0133142 -0.0101968 0.0207866 0.25356 0.15564 1.16499 0.0128631 
0.134 0.802819 -0.00986775 0.0122086 0.596016 4.37104 27.4442 13.0255 12.8711 -0.872678 0.0133206 -0.0102089 0.0208133 0.253861 0.163625 1.16493 0.0130215 
0.135 0.802743 -0.00987651 0.0122152 0.596118 4.38391 27.4433 13.0255 12.87 -0.87218 0.0133269 -0.0102209 0.0208401 0.254161 0.171608 1.16486 0.01318 
0.136 0.802667 -0.00988528 0.0122218 0.59622 4.39678 27.4424 13.0255 12.8689 -0.871675 0.0133331 -0.0102329 0.0208667 0.25446 0.179591 1.1648 0.0133388 
0.137 0.802591 -0.00989406 0.0122284 0.596322 4.40965 27.4416 13.0255 12.8679 -0.871163 0.0133393 -0.0102449 0.0208933 0.254758 0.187572 1.16473 0.0134977 
0.138 0.802515 -0.00990284 0.012235 0.596424 4.42252 27.4407 13.0256 12.8668 -0.870643 0.0133453 -0.0102569 0.0209199 0.255055 0.195552 1.16465 0.0136568 
0.139 0.802439 -0.00991164 0.0122416 0.596526 4.43538 27.4398 13.0256 12.8657 -0.870116 0.0133512 -0.0102688 0.0209464 0.255352 0.20353 1.16457 0.0138161 
0.14 0.802363 -0.00992045 0.0122482 0.596629 4.44825 27.4389 13.0256 12.8647 -0.869582 0.0133571 -0.0102807 0.0209728 0.255647 0.211506 1.16449 0.0139756 
0.141 0.802286 -0.00992927 0.0122548 0.596731 4.46111 27.4381 13.0256 12.8636 -0.86904 0.0133628 -0.0102926 0.0209992 0.255942 0.219482 1.16441 0.0141352 
0.142 0.802209 -0.0099381 0.0122614 0.596834 4.47398 27.4372 13.0256 12.8626 -0.868491 0.0133685 -0.0103044 0.0210256 0.256236 0.227455 1.16433 0.014295 
0.143 0.802133 -0.00994695 0.0122681 0.596937 4.48684 27.4363 13.0256 12.8615 -0.867934 0.013374 -0.0103162 0.0210519 0.256529 0.235427 1.16424 0.014455 
0.144 0.802056 -0.0099558 0.0122747 0.59704 4.4997 27.4355 13.0256 12.8605 -0.86737 0.0133795 -0.010328 0.0210781 0.256821 0.243397 1.16415 0.0146152 
0.145 0.801979 -0.00996466 0.0122814 0.597143 4.51256 27.4346 13.0257 12.8594 -0.866799 0.0133848 -0.0103397 0.0211043 0.257113 0.251365 1.16405 0.0147755 
0.146 0.801902 -0.00997354 0.012288 0.597246 4.52542 27.4337 13.0257 12.8584 -0.866221 0.01339 -0.0103514 0.0211305 0.257403 0.259332 1.16396 0.014936 
0.147 0.801825 -0.00998242 0.0122947 0.597349 4.53827 27.4329 13.0257 12.8574 -0.865635 0.0133952 -0.010363 0.0211566 0.257693 0.267296 1.16385 0.0150967 
0.148 0.801748 -0.00999132 0.0123014 0.597452 4.55113 27.432 13.0257 12.8563 -0.865042 0.0134002 -0.0103747 0.0211826 0.257982 0.275259 1.16375 0.0152575 
0.149 0.80167 -0.0100002 0.0123081 0.597556 4.56399 27.4311 13.0257 12.8553 -0.864441 0.0134052 -0.0103863 0.0212086 0.25827 0.28322 1.16365 0.0154185 
0.15 0.801593 -0.0100091 0.0123148 0.597659 4.57684 27.4303 13.0257 12.8543 -0.863834 0.01341 -0.0103978 0.0212346 0.258557 0.291179 1.16354 0.0155797 
0.151 0.801516 -0.0100181 0.0123215 0.597763 4.5897 27.4294 13.0257 12.8532 -0.863218 0.0134148 -0.0104094 0.0212605 0.258844 0.299135 1.16342 0.015741 
0.152 0.801438 -0.010027 0.0123282 0.597867 4.60255 27.4286 13.0257 12.8522 -0.862596 0.0134194 -0.0104208 0.0212863 0.259129 0.30709 1.16331 0.0159025 
0.153 0.80136 -0.0100359 0.0123349 0.597971 4.6154 27.4277 13.0258 12.8512 -0.861966 0.013424 -0.0104323 0.0213121 0.259414 0.315042 1.16319 0.0160642 
0.154 0.801282 -0.0100449 0.0123416 0.598075 4.62825 27.4268 13.0258 12.8501 -0.861329 0.0134284 -0.0104437 0.0213378 0.259698 0.322992 1.16307 0.016226 
0.155 0.801205 -0.0100539 0.0123483 0.598179 4.6411 27.426 13.0258 12.8491 -0.860685 0.0134327 -0.0104551 0.0213635 0.259981 0.33094 1.16294 0.016388 
0.156 0.801127 -0.0100628 0.0123551 0.598283 4.65395 27.4251 13.0258 12.8481 -0.860033 0.013437 -0.0104665 0.0213892 0.260263 0.338885 1.16282 0.0165502 
0.157 0.801049 -0.0100718 0.0123618 0.598387 4.6668 27.4242 13.0258 12.8471 -0.859374 0.0134411 -0.0104778 0.0214147 0.260545 0.346828 1.16269 0.0167125 
0.158 0.80097 -0.0100808 0.0123686 0.598491 4.67964 27.4234 13.0258 12.8461 -0.858707 0.0134452 -0.0104891 0.0214403 0.260825 0.354769 1.16255 0.016875 
0.159 0.800892 -0.0100898 0.0123754 0.598596 4.69249 27.4225 13.0258 12.8451 -0.858034 0.0134491 -0.0105004 0.0214658 0.261105 0.362707 1.16242 0.0170376 
0.16 0.800814 -0.0100989 0.0123821 0.5987 4.70533 27.4217 13.0259 12.844 -0.857353 0.013453 -0.0105116 0.0214912 0.261384 0.370642 1.16228 0.0172004 
0.161 0.800735 -0.0101079 0.0123889 0.598805 4.71818 27.4208 13.0259 12.843 -0.856664 0.0134567 -0.0105228 0.0215166 0.261662 0.378575 1.16213 0.0173633 
0.162 0.800657 -0.0101169 0.0123957 0.59891 4.73102 27.42 13.0259 12.842 -0.855969 0.0134604 -0.010534 0.0215419 0.261939 0.386506 1.16199 0.0175264 
0.163 0.800578 -0.010126 0.0124025 0.599015 4.74386 27.4191 13.0259 12.841 -0.855266 0.0134639 -0.0105451 0.0215672 0.262216 0.394433 1.16184 0.0176896 
0.164 0.800499 -0.010135 0.0124093 0.59912 4.7567 27.4183 13.0259 12.84 -0.854555 0.0134673 -0.0105562 0.0215924 0.262491 0.402358 1.16168 0.017853 
0.165 0.80042 -0.0101441 0.0124161 0.599225 4.76954 27.4174 13.0259 12.839 -0.853838 0.0134707 -0.0105673 0.0216176 0.262766 0.41028 1.16153 0.0180166 
0.166 0.800341 -0.0101532 0.0124229 0.59933 4.78238 27.4165 13.0259 12.838 -0.853113 0.0134739 -0.0105783 0.0216428 0.26304 0.418199 1.16137 0.0181803 
0.167 0.800262 -0.0101623 0.0124298 0.599435 4.79522 27.4157 13.026 12.837 -0.852381 0.013477 -0.0105893 0.0216678 0.263313 0.426115 1.16121 0.0183441 
0.168 0.800183 -0.0101714 0.0124366 0.599541 4.80805 27.4148 13.026 12.836 -0.851642 0.0134801 -0.0106003 0.0216929 0.263585 0.434029 1.16104 0.0185081 
0.169 0.800104 -0.0101805 0.0124435 0.599646 4.82089 27.414 13.026 12.835 -0.850895 0.013483 -0.0106112 0.0217178 0.263857 0.441939 1.16087 0.0186723 
0.17 0.800025 -0.0101896 0.0124503 0.599752 4.83372 27.4131 13.026 12.8341 -0.850141 0.0134858 -0.0106221 0.0217428 0.264127 0.449846 1.1607 0.0188365 
0.171 0.799945 -0.0101987 0.0124572 0.599857 4.84656 27.4123 13.026 12.8331 -0.84938 0.0134886 -0.010633 0.0217676 0.264397 0.45775 1.16052 0.019001 
0.172 0.799866 -0.0102079 0.012464 0.599963 4.85939 27.4114 13.026 12.8321 -0.848611 0.0134912 -0.0106438 0.0217925 0.264666 0.465651 1.16035 0.0191655 
0.173 0.799786 -0.010217 0.0124709 0.600069 4.87222 27.4106 13.026 12.8311 -0.847835 0.0134937 -0.0106546 0.0218172 0.264934 0.473549 1.16016 0.0193302 
0.174 0.799706 -0.0102262 0.0124778 0.600175 4.88505 27.4097 13.026 12.8301 -0.847052 0.0134961 -0.0106654 0.021842 0.265201 0.481443 1.15998 0.0194951 
0.175 0.799626 -0.0102354 0.0124847 0.600281 4.89788 27.4089 13.0261 12.8291 -0.846262 0.0134984 -0.0106761 0.0218666 0.265467 0.489334 1.15979 0.0196601 
0.176 0.799546 -0.0102445 0.0124916 0.600387 4.91071 27.408 13.0261 12.8282 -0.845464 0.0135007 -0.0106868 0.0218913 0.265733 0.497222 1.1596 0.0198252 
0.177 0.799466 -0.0102537 0.0124985 0.600493 4.92354 27.4072 13.0261 12.8272 -0.84466 0.0135028 -0.0106975 0.0219158 0.265997 0.505106 1.1594 0.0199905 
0.178 0.799386 -0.0102629 0.0125054 0.6006 4.93637 27.4064 13.0261 12.8262 -0.843847 0.0135048 -0.0107081 0.0219403 0.266261 0.512987 1.15921 0.0201559 
0.179 0.799306 -0.0102721 0.0125124 0.600706 4.94919 27.4055 13.0261 12.8253 -0.843028 0.0135067 -0.0107187 0.0219648 0.266524 0.520864 1.159 0.0203214 
0.18 0.799226 -0.0102814 0.0125193 0.600812 4.96202 27.4047 13.0261 12.8243 -0.842201 0.0135085 -0.0107293 0.0219892 0.266786 0.528738 1.1588 0.0204871 
0.181 0.799145 -0.0102906 0.0125262 0.600919 4.97484 27.4038 13.0261 12.8233 -0.841368 0.0135102 -0.0107398 0.0220136 0.267048 0.536608 1.15859 0.0206529 
0.182 0.799065 -0.0102998 0.0125332 0.601026 4.98766 27.403 13.0262 12.8224 -0.840526 0.0135118 -0.0107503 0.0220379 0.267308 0.544474 1.15838 0.0208188 
0.183 0.798984 -0.0103091 0.0125401 0.601133 5.00048 27.4022 13.0262 12.8214 -0.839678 0.0135133 -0.0107608 0.0220622 0.267568 0.552337 1.15816 0.0209849 
0.184 0.798904 -0.0103183 0.0125471 0.601239 5.01331 27.4013 13.0262 12.8204 -0.838822 0.0135147 -0.0107712 0.0220864 0.267827 0.560196 1.15794 0.0211511 
0.185 0.798823 -0.0103276 0.0125541 0.601346 5.02613 27.4005 13.0262 12.8195 -0.83796 0.0135159 -0.0107816 0.0221106 0.268085 0.568051 1.15772 0.0213174 
0.186 0.798742 -0.0103369 0.012561 0.601454 5.03894 27.3996 13.0262 12.8185 -0.83709 0.0135171 -0.010792 0.0221347 0.268342 0.575902 1.1575 0.0214839 
0.187 0.798661 -0.0103462 0.012568 0.601561 5.05176 27.3988 13.0262 12.8176 -0.836212 0.0135182 -0.0108024 0.0221587 0.268598 0.583749 1.15727 0.0216504 
0.188 0.79858 -0.0103554 0.012575 0.601668 5.06458 27.398 13.0262 12.8166 -0.835328 0.0135192 -0.0108127 0.0221828 0.268854 0.591592 1.15704 0.0218171 
0.189 0.798499 -0.0103648 0.012582 0.601775 5.0774 27.3971 13.0262 12.8157 -0.834436 0.0135201 -0.0108229 0.0222067 0.269108 0.599431 1.1568 0.021984 
0.19 0.798418 -0.0103741 0.012589 0.601883 5.09021 27.3963 13.0263 12.8147 -0.833537 0.0135208 -0.0108332 0.0222306 0.269362 0.607266 1.15656 0.0221509 
0.191 0.798337 -0.0103834 0.012596 0.60199 5.10302 27.3955 13.0263 12.8138 -0.832631 0.0135215 -0.0108434 0.0222545 0.269615 0.615096 1.15632 0.022318 
0.192 0.798255 -0.0103927 0.0126031 0.602098 5.11584 27.3946 13.0263 12.8129 -0.831718 0.013522 -0.0108536 0.0222783 0.269867 0.622923 1.15607 0.0224852 
0.193 0.798174 -0.0104021 0.0126101 0.602206 5.12865 27.3938 13.0263 12.8119 -0.830797 0.0135225 -0.0108637 0.0223021 0.270119 0.630745 1.15582 0.0226525 
0.194 0.798092 -0.0104114 0.0126171 0.602313 5.14146 27.393 13.0263 12.811 -0.829869 0.0135229 -0.0108738 0.0223258 0.270369 0.638563 1.15557 0.0228199 
0.195 0.79801 -0.0104208 0.0126242 0.602421 5.15427 27.3921 13.0263 12.81 -0.828934 0.0135231 -0.0108839 0.0223494 0.270619 0.646377 1.15531 0.0229874 
0.196 0.797929 -0.0104302 0.0126312 0.602529 5.16708 27.3913 13.0263 12.8091 -0.827992 0.0135232 -0.0108939 0.022373 0.270868 0.654186 1.15505 0.0231551 
0.197 0.797847 -0.0104395 0.0126383 0.602637 5.17989 27.3905 13.0264 12.8082 -0.827043 0.0135233 -0.0109039 0.0223966 0.271116 0.661991 1.15479 0.0233228 
0.198 0.797765 -0.0104489 0.0126454 0.602745 5.1927 27.3897 13.0264 12.8072 -0.826086 0.0135232 -0.0109139 0.0224201 0.271363 0.669791 1.15452 0.0234907 
0.199 0.797683 -0.0104583 0.0126524 0.602854 5.20551 27.3888 13.0264 12.8063 -0.825123 0.013523 -0.0109239 0.0224435 0.271609 0.677586 1.15425 0.0236587 
0.2 0.797601 -0.0104677 0.0126595 0.602962 5.21831 27.388 13.0264 12.8054 -0.824152 0.0135228 -0.0109338 0.0224669 0.271854 0.685377 1.15398 0.0238268 
0.201 0.797519 -0.0104771 0.0126666 0.60307 5.23112 27.3872 13.0264 12.8045 -0.823174 0.0135224 -0.0109437 0.0224903 0.272099 0.693163 1.1537 0.023995 
0.202 0.797436 -0.0104866 0.0126737 0.603179 5.24392 27.3864 13.0264 12.8036 -0.822189 0.0135219 -0.0109535 0.0225136 0.272343 0.700945 1.15342 0.0241633 
0.203 0.797354 -0.010496 0.0126808 0.603288 5.25672 27.3855 13.0264 12.8026 -0.821196 0.0135213 -0.0109633 0.0225368 0.272586 0.708722 1.15313 0.0243317 
0.204 0.797271 -0.0105055 0.0126879 0.603396 5.26953 27.3847 13.0265 12.8017 -0.820197 0.0135206 -0.0109731 0.02256 0.272828 0.716494 1.15284 0.0245002 
0.205 0.797189 -0.0105149 0.012695 0.603505 5.28233 27.3839 13.0265 12.8008 -0.81919 0.0135198 -0.0109829 0.0225832 0.273069 0.724261 1.15255 0.0246688 
0.206 0.797106 -0.0105244 0.0127022 0.603614 5.29513 27.3831 13.0265 12.7999 -0.818176 0.0135189 -0.0109926 0.0226063 0.27331 0.732023 1.15226 0.0248376 
0.207 0.797023 -0.0105338 0.0127093 0.603723 5.30793 27.3823 13.0265 12.799 -0.817155 0.0135179 -0.0110023 0.0226293 0.273549 0.73978 1.15196 0.0250064 
0.208 0.796941 -0.0105433 0.0127164 0.603832 5.32072 27.3814 13.0265 12.7981 -0.816127 0.0135167 -0.0110119 0.0226523 0.273788 0.747532 1.15165 0.0251753 
0.209 0.796858 -0.0105528 0.0127236 0.603941 5.33352 27.3806 13.0265 12.7972 -0.815092 0.0135155 -0.0110215 0.0226753 0.274026 0.755279 1.15135 0.0253443 
0.21 0.796775 -0.0105623 0.0127307 0.60405 5.34632 27.3798 13.0265 12.7963 -0.81405 0.0135142 -0.0110311 0.0226981 0.274263 0.76302 1.15104 0.0255135 
0.211 0.796692 -0.0105718 0.0127379 0.604159 5.35912 27.379 13.0265 12.7954 -0.813 0.0135127 -0.0110407 0.022721 0.274499 0.770757 1.15072 0.0256827 
0.212 0.796608 -0.0105813 0.0127451 0.604269 5.37191 27.3782 13.0266 12.7945 -0.811944 0.0135112 -0.0110502 0.0227438 0.274735 0.778488 1.15041 0.025852 
0.213 0.796525 -0.0105909 0.0127523 0.604378 5.3847 27.3774 13.0266 12.7936 -0.81088 0.0135095 -0.0110597 0.0227665 0.274969 0.786214 1.15008 0.0260214 
0.214 0.796442 -0.0106004 0.0127594 0.604487 5.3975 27.3766 13.0266 12.7927 -0.809809 0.0135078 -0.0110691 0.0227892 0.275203 0.793935 1.14976 0.0261909 
0.215 0.796358 -0.01061 0.0127666 0.604597 5.41029 27.3758 13.0266 12.7918 -0.808731 0.0135059 -0.0110785 0.0228118 0.275436 0.80165 1.14943 0.0263605 
0.216 0.796275 -0.0106195 0.0127738 0.604707 5.42308 27.3749 13.0266 12.7909 -0.807646 0.0135039 -0.0110879 0.0228344 0.275668 0.80936 1.1491 0.0265301 
0.217 0.796191 -0.0106291 0.012781 0.604816 5.43587 27.3741 13.0266 12.79 -0.806554 0.0135019 -0.0110973 0.022857 0.275899 0.817064 1.14876 0.0266999 
0.218 0.796108 -0.0106386 0.0127882 0.604926 5.44866 27.3733 13.0266 12.7891 -0.805455 0.0134997 -0.0111066 0.0228795 0.27613 0.824762 1.14842 0.0268697 
0.219 0.796024 -0.0106482 0.0127955 0.605036 5.46145 27.3725 13.0267 12.7882 -0.804349 0.0134974 -0.0111159 0.0229019 0.276359 0.832455 1.14808 0.0270397 
0.22 0.79594 -0.0106578 0.0128027 0.605146 5.47424 27.3717 13.0267 12.7874 -0.803236 0.013495 -0.0111251 0.0229243 0.276588 0.840143 1.14773 0.0272097 
0.221 0.795856 -0.0106674 0.0128099 0.605256 5.48702 27.3709 13.0267 12.7865 -0.802115 0.0134925 -0.0111344 0.0229466 0.276816 0.847824 1.14738 0.0273798 
0.222 0.795772 -0.010677 0.0128172 0.605366 5.49981 27.3701 13.0267 12.7856 -0.800988 0.0134899 -0.0111436 0.0229689 0.277043 0.8555 1.14702 0.0275499 
0.223 0.795688 -0.0106866 0.0128244 0.605477 5.5126 27.3693 13.0267 12.7847 -0.799853 0.0134871 -0.0111527 0.0229911 0.277269 0.86317 1.14667 0.0277202 
0.224 0.795604 -0.0106963 0.0128317 0.605587 5.52538 27.3685 13.0267 12.7838 -0.798712 0.0134843 -0.0111618 0.0230133 0.277494 0.870834 1.1463 0.0278905 
0.225 0.79552 -0.0107059 0.0128389 0.605697 5.53816 27.3677 13.0267 12.783 -0.797563 0.0134814 -0.0111709 0.0230354 0.277719 0.878492 1.14594 0.0280609 
0.226 0.795435 -0.0107155 0.0128462 0.605808 5.55095 27.3669 13.0267 12.7821 -0.796407 0.0134783 -0.01118 0.0230575 0.277943 0.886144 1.14557 0.0282314 
0.227 0.795351 -0.0107252 0.0128535 0.605918 5.56373 27.3661 13.0268 12.7812 -0.795245 0.0134752 -0.011189 0.0230795 0.278166 0.89379 1.14519 0.028402 
0.228 0.795266 -0.0107348 0.0128608 0.606029 5.57651 27.3653 13.0268 12.7804 -0.794075 0.0134719 -0.011198 0.0231015 0.278388 0.90143 1.14482 0.0285726 
0.229 0.795182 -0.0107445 0.0128681 0.60614 5.58929 27.3645 13.0268 12.7795 -0.792898 0.0134686 -0.011207 0.0231234 0.278609 0.909064 1.14444 0.0287433 
0.23 0.795097 -0.0107542 0.0128754 0.60625 5.60207 27.3638 13.0268 12.7786 -0.791715 0.0134651 -0.0112159 0.0231453 0.278829 0.916691 1.14405 0.0289141 
0.231 0.795012 -0.0107639 0.0128827 0.606361 5.61485 27.363 13.0268 12.7778 -0.790524 0.0134615 -0.0112248 0.0231671 0.279049 0.924313 1.14366 0.0290849 
0.232 0.794927 -0.0107736 0.01289 0.606472 5.62762 27.3622 13.0268 12.7769 -0.789326 0.0134578 -0.0112337 0.0231889 0.279267 0.931928 1.14327 0.0292559 
0.233 0.794842 -0.0107833 0.0128973 0.606583 5.6404 27.3614 13.0268 12.7761 -0.788121 0.013454 -0.0112425 0.0232106 0.279485 0.939536 1.14287 0.0294268 
0.234 0.794757 -0.010793 0.0129046 0.606694 5.65317 27.3606 13.0269 12.7752 -0.78691 0.0134501 -0.0112513 0.0232323 0.279702 0.947139 1.14247 0.0295979 
0.235 0.794672 -0.0108027 0.0129119 0.606805 5.66595 27.3598 13.0269 12.7744 -0.785691 0.0134461 -0.0112601 0.0232539 0.279919 0.954734 1.14207 0.029769 
0.236 0.794587 -0.0108124 0.0129193 0.606916 5.67872 27.359 13.0269 12.7735 -0.784465 0.013442 -0.0112688 0.0232755 0.280134 0.962324 1.14166 0.0299401 
0.237 0.794502 -0.0108221 0.0129266 0.607028 5.6915 27.3582 13.0269 12.7727 -0.783232 0.0134377 -0.0112775 0.023297 0.280348 0.969906 1.14125 0.0301114 
0.238 0.794416 -0.0108319 0.012934 0.607139 5.70427 27.3575 13.0269 12.7718 -0.781993 0.0134334 -0.0112862 0.0233185 0.280562 0.977482 1.14083 0.0302826 
0.239 0.794331 -0.0108416 0.0129413 0.60725 5.71704 27.3567 13.0269 12.771 -0.780746 0.0134289 -0.0112948 0.0233399 0.280775 0.985052 1.14041 0.030454 
0.24 0.794246 -0.0108514 0.0129487 0.607362 5.72981 27.3559 13.0269 12.7701 -0.779493 0.0134244 -0.0113034 0.0233613 0.280987 0.992614 1.13999 0.0306254 
0.241 0.79416 -0.0108612 0.0129561 0.607474 5.74258 27.3551 13.0269 12.7693 -0.778232 0.0134197 -0.011312 0.0233826 0.281198 1.00017 1.13956 0.0307968 
0.242 0.794074 -0.0108709 0.0129635 0.607585 5.75535 27.3543 13.027 12.7685 -0.776965 0.0134149 -0.0113205 0.0234039 0.281408 1.00772 1.13913 0.0309683 
0.243 0.793989 -0.0108807 0.0129708 0.607697 5.76812 27.3536 13.027 12.7676 -0.77569 0.0134101 -0.011329 0.0234251 0.281618 1.01526 1.13869 0.0311399 
0.244 0.793903 -0.0108905 0.0129782 0.607809 5.78088 27.3528 13.027 12.7668 -0.774409 0.0134051 -0.0113375 0.0234462 0.281827 1.0228 1.13825 0.0313115 
0.245 0.793817 -0.0109003 0.0129856 0.607921 5.79365 27.352 13.027 12.766 -0.773121 0.0134 -0.011346 0.0234674 0.282034 1.03032 1.13781 0.0314831 
0.246 0.793731 -0.0109101 0.012993 0.608032 5.80642 27.3512 13.027 12.7651 -0.771825 0.0133947 -0.0113544 0.0234884 0.282241 1.03785 1.13736 0.0316548 
0.247 0.793645 -0.0109199 0.0130005 0.608144 5.81918 27.3505 13.027 12.7643 -0.770523 0.0133894 -0.0113627 0.0235094 0.282448 1.04536 1.13691 0.0318266 
0.248 0.793559 -0.0109298 0.0130079 0.608257 5.83195 27.3497 13.027 12.7635 -0.769214 0.013384 -0.0113711 0.0235304 0.282653 1.05287 1.13646 0.0319983 
0.249 0.793472 -0.0109396 0.0130153 0.608369 5.84471 27.3489 13.0271 12.7627 -0.767898 0.0133785 -0.0113794 0.0235513 0.282857 1.06037 1.136 0.0321702 
0.25 0.793386 -0.0109494 0.0130227 0.608481 5.85747 27.3482 13.0271 12.7618 -0.766576 0.0133728 -0.0113877 0.0235722 0.283061 1.06786 1.13553 0.032342 
0.251 0.7933 -0.0109593 0.0130302 0.608593 5.87023 27.3474 13.0271 12.761 -0.765246 0.013367 -0.0113959 0.023593 0.283264 1.07534 1.13507 0.032514 
0.252 0.793213 -0.0109692 0.0130376 0.608705 5.88299 27.3466 13.0271 12.7602 -0.763909 0.0133612 -0.0114041 0.0236137 0.283466 1.08282 1.1346 0.0326859 
0.253 0.793127 -0.010979 0.0130451 0.608818 5.89575 27.3459 13.0271 12.7594 -0.762566 0.0133552 -0.0114123 0.0236344 0.283667 1.09029 1.13412 0.0328579 
0.254 0.79304 -0.0109889 0.0130525 0.60893 5.90851 27.3451 13.0271 12.7586 -0.761216 0.0133491 -0.0114205 0.0236551 0.283867 1.09775 1.13364 0.0330299 
0.255 0.792953 -0.0109988 0.01306 0.609043 5.92127 27.3443 13.0271 12.7578 -0.759859 0.0133429 -0.0114286 0.0236757 0.284067 1.10521 1.13316 0.033202 
0.256 0.792867 -0.0110087 0.0130675 0.609155 5.93403 27.3436 13.0271 12.757 -0.758495 0.0133366 -0.0114367 0.0236962 0.284265 1.11266 1.13267 0.0333741 
0.257 0.79278 -0.0110186 0.0130749 0.609268 5.94678 27.3428 13.0272 12.7562 -0.757124 0.0133302 -0.0114447 0.0237167 0.284463 1.1201 1.13218 0.0335462 
0.258 0.792693 -0.0110285 0.0130824 0.609381 5.95954 27.3421 13.0272 12.7554 -0.755746 0.0133236 -0.0114527 0.0237372 0.28466 1.12753 1.13169 0.0337183 
0.259 0.792606 -0.0110384 0.0130899 0.609494 5.97229 27.3413 13.0272 12.7545 -0.754362 0.013317 -0.0114607 0.0237576 0.284856 1.13495 1.13119 0.0338905 
0.26 0.792519 -0.0110483 0.0130974 0.609607 5.98505 27.3406 13.0272 12.7537 -0.752971 0.0133103 -0.0114687 0.023778 0.285052 1.14237 1.13068 0.0340627 
0.261 0.792432 -0.0110582 0.0131049 0.609719 5.9978 27.3398 13.0272 12.7529 -0.751573 0.0133034 -0.0114766 0.0237983 0.285246 1.14978 1.13018 0.0342349 
0.262 0.792345 -0.0110682 0.0131124 0.609832 6.01055 27.3391 13.0272 12.7522 -0.750168 0.0132964 -0.0114845 0.0238185 0.28544 1.15718 1.12967 0.0344072 
0.263 0.792257 -0.0110781 0.01312 0.609946 6.02331 27.3383 13.0272 12.7514 -0.748756 0.0132893 -0.0114923 0.0238387 0.285632 1.16457 1.12915 0.0345794 
0.264 0.79217 -0.0110881 0.0131275 0.610059 6.03606 27.3376 13.0273 12.7506 -0.747338 0.0132821 -0.0115002 0.0238588 0.285824 1.17196 1.12863 0.0347517 
0.265 0.792082 -0.011098 0.013135 0.610172 6.04881 27.3368 13.0273 12.7498 -0.745912 0.0132748 -0.0115079 0.0238789 0.286015 1.17934 1.12811 0.034924 
0.266 0.791995 -0.011108 0.0131425 0.610285 6.06156 27.3361 13.0273 12.749 -0.74448 0.0132674 -0.0115157 0.023899 0.286206 1.1867 1.12758 0.0350964 
0.267 0.791907 -0.011118 0.0131501 0.610398 6.07431 27.3353 13.0273 12.7482 -0.743042 0.0132599 -0.0115234 0.023919 0.286395 1.19406 1.12705 0.0352687 
0.268 0.79182 -0.011128 0.0131576 0.610512 6.08705 27.3346 13.0273 12.7474 -0.741596 0.0132523 -0.0115311 0.0239389 0.286584 1.20142 1.12651 0.0354411 
0.269 0.791732 -0.0111379 0.0131652 0.610625 6.0998 27.3338 13.0273 12.7466 -0.740144 0.0132445 -0.0115388 0.0239588 0.286772 1.20876 1.12597 0.0356134 
0.27 0.791644 -0.0111479 0.0131728 0.610739 6.11255 27.3331 13.0273 12.7459 -0.738685 0.0132367 -0.0115464 0.0239787 0.286958 1.2161 1.12543 0.0357858 
0.271 0.791556 -0.011158 0.0131803 0.610852 6.12529 27.3324 13.0273 12.7451 -0.737219 0.0132287 -0.011554 0.0239985 0.287145 1.22343 1.12488 0.0359582 
0.272 0.791468 -0.011168 0.0131879 0.610966 6.13804 27.3316 13.0274 12.7443 -0.735747 0.0132206 -0.0115616 0.0240182 0.28733 1.23074 1.12433 0.0361306 
0.273 0.79138 -0.011178 0.0131955 0.61108 6.15078 27.3309 13.0274 12.7435 -0.734268 0.0132124 -0.0115691 0.0240379 0.287514 1.23805 1.12378 0.036303 
0.274 0.791292 -0.011188 0.0132031 0.611193 6.16352 27.3302 13.0274 12.7427 -0.732782 0.0132041 -0.0115766 0.0240575 0.287698 1.24536 1.12321 0.0364754 
0.275 0.791204 -0.0111981 0.0132107 0.611307 6.17627 27.3294 13.0274 12.742 -0.731289 0.0131957 -0.0115841 0.0240771 0.287881 1.25265 1.12265 0.0366478 
0.276 0.791116 -0.0112081 0.0132183 0.611421 6.18901 27.3287 13.0274 12.7412 -0.72979 0.0131872 -0.0115915 0.0240966 0.288062 1.25994 1.12208 0.0368202 
0.277 0.791027 -0.0112182 0.0132259 0.611535 6.20175 27.328 13.0274 12.7404 -0.728284 0.0131785 -0.0115989 0.0241161 0.288244 1.26721 1.12151 0.0369926 
0.278 0.790939 -0.0112282 0.0132335 0.611649 6.21449 27.3272 13.0274 12.7397 -0.726771 0.0131698 -0.0116063 0.0241356 0.288424 1.27448 1.12093 0.037165 
0.279 0.790851 -0.0112383 0.0132411 0.611763 6.22723 27.3265 13.0275 12.7389 -0.725252 0.0131609 -0.0116136 0.0241549 0.288603 1.28174 1.12035 0.0373374 
0.28 0.790762 -0.0112484 0.0132487 0.611877 6.23997 27.3258 13.0275 12.7381 -0.723726 0.0131519 -0.0116209 0.0241743 0.288782 1.28899 1.11977 0.0375098 
0.281 0.790673 -0.0112584 0.0132563 0.611991 6.2527 27.3251 13.0275 12.7374 -0.722193 0.0131429 -0.0116282 0.0241936 0.288959 1.29623 1.11918 0.0376822 
0.282 0.790585 -0.0112685 0.013264 0.612105 6.26544 27.3244 13.0275 12.7366 -0.720654 0.0131337 -0.0116354 0.0242128 0.289136 1.30346 1.11858 0.0378546 
0.283 0.790496 -0.0112786 0.0132716 0.61222 6.27818 27.3236 13.0275 12.7359 -0.719108 0.0131244 -0.0116427 0.024232 0.289312 1.31068 1.11799 0.038027 
0.284 0.790407 -0.0112887 0.0132793 0.612334 6.29091 27.3229 13.0275 12.7351 -0.717556 0.0131149 -0.0116498 0.0242511 0.289488 1.3179 1.11738 0.0381994 
0.285 0.790318 -0.0112988 0.0132869 0.612448 6.30365 27.3222 13.0275 12.7344 -0.715997 0.0131054 -0.011657 0.0242702 0.289662 1.3251 1.11678 0.0383717 
0.286 0.790229 -0.0113089 0.0132946 0.612563 6.31638 27.3215 13.0275 12.7336 -0.714431 0.0130958 -0.0116641 0.0242892 0.289836 1.3323 1.11617 0.0385441 
0.287 0.79014 -0.0113191 0.0133023 0.612677 6.32911 27.3208 13.0276 12.7329 -0.712859 0.013086 -0.0116712 0.0243082 0.290008 1.33948 1.11555 0.0387164 
0.288 0.790051 -0.0113292 0.0133099 0.612792 6.34185 27.3201 13.0276 12.7321 -0.71128 0.0130761 -0.0116782 0.0243271 0.29018 1.34666 1.11494 0.0388887 
0.289 0.789962 -0.0113393 0.0133176 0.612906 6.35458 27.3193 13.0276 12.7314 -0.709695 0.0130661 -0.0116852 0.024346 0.290351 1.35383 1.11431 0.039061 
0.29 0.789873 -0.0113495 0.0133253 0.613021 6.36731 27.3186 13.0276 12.7306 -0.708103 0.013056 -0.0116922 0.0243648 0.290521 1.36099 1.11369 0.0392332 
0.291 0.789783 -0.0113596 0.013333 0.613136 6.38004 27.3179 13.0276 12.7299 -0.706504 0.0130458 -0.0116992 0.0243836 0.290691 1.36813 1.11306 0.0394055 
0.292 0.789694 -0.0113698 0.0133407 0.61325 6.39277 27.3172 13.0276 12.7292 -0.704899 0.0130355 -0.0117061 0.0244023 0.290859 1.37527 1.11242 0.0395777 
0.293 0.789605 -0.01138 0.0133484 0.613365 6.4055 27.3165 13.0276 12.7284 -0.703287 0.0130251 -0.011713 0.024421 0.291027 1.3824 1.11178 0.0397499 
0.294 0.789515 -0.0113901 0.0133561 0.61348 6.41823 27.3158 13.0277 12.7277 -0.701669 0.0130145 -0.0117198 0.0244396 0.291194 1.38952 1.11114 0.039922 
0.295 0.789425 -0.0114003 0.0133638 0.613595 6.43095 27.3151 13.0277 12.727 -0.700044 0.0130039 -0.0117266 0.0244582 0.29136 1.39663 1.11049 0.0400942 
0.296 0.789336 -0.0114105 0.0133715 0.61371 6.44368 27.3144 13.0277 12.7262 -0.698413 0.0129931 -0.0117334 0.0244767 0.291525 1.40373 1.10984 0.0402663 
0.297 0.789246 -0.0114207 0.0133792 0.613825 6.45641 27.3137 13.0277 12.7255 -0.696775 0.0129822 -0.0117402 0.0244952 0.291689 1.41083 1.10918 0.0404383 
0.298 0.789156 -0.0114309 0.013387 0.61394 6.46913 27.313 13.0277 12.7248 -0.695131 0.0129712 -0.0117469 0.0245136 0.291853 1.41791 1.10852 0.0406104 
0.299 0.789066 -0.0114411 0.0133947 0.614055 6.48186 27.3123 13.0277 12.7241 -0.69348 0.0129601 -0.0117536 0.024532 0.292016 1.42498 1.10785 0.0407824 
0.3 0.788977 -0.0114513 0.0134025 0.61417 6.49458 27.3116 13.0277 12.7233 -0.691823 0.0129489 -0.0117603 0.0245503 0.292177 1.43204 1.10719 0.0409543 
0.301 0.788887 -0.0114616 0.0134102 0.614286 6.5073 27.3109 13.0277 12.7226 -0.690159 0.0129376 -0.0117669 0.0245685 0.292338 1.43909 1.10651 0.0411262 
0.302 0.788796 -0.0114718 0.013418 0.614401 6.52002 27.3103 13.0278 12.7219 -0.688489 0.0129261 -0.0117735 0.0245868 0.292499 1.44613 1.10583 0.0412981 
0.303 0.788706 -0.011482 0.0134257 0.614516 6.53275 27.3096 13.0278 12.7212 -0.686813 0.0129146 -0.0117801 0.0246049 0.292658 1.45316 1.10515 0.04147 
0.304 0.788616 -0.0114923 0.0134335 0.614632 6.54547 27.3089 13.0278 12.7205 -0.68513 0.0129029 -0.0117866 0.024623 0.292816 1.46018 1.10447 0.0416418 
0.305 0.788526 -0.0115025 0.0134413 0.614747 6.55819 27.3082 13.0278 12.7197 -0.68344 0.0128911 -0.0117931 0.0246411 0.292974 1.46719 1.10378 0.0418135 
0.306 0.788436 -0.0115128 0.013449 0.614862 6.57091 27.3075 13.0278 12.719 -0.681744 0.0128792 -0.0117995 0.0246591 0.293131 1.4742 1.10308 0.0419852 
0.307 0.788345 -0.0115231 0.0134568 0.614978 6.58363 27.3068 13.0278 12.7183 -0.680042 0.0128672 -0.011806 0.0246771 0.293287 1.48119 1.10238 0.0421569 
0.308 0.788255 -0.0115333 0.0134646 0.615094 6.59634 27.3062 13.0278 12.7176 -0.678334 0.012855 -0.0118124 0.024695 0.293442 1.48817 1.10168 0.0423285 
0.309 0.788164 -0.0115436 0.0134724 0.615209 6.60906 27.3055 13.0278 12.7169 -0.676619 0.0128428 -0.0118188 0.0247128 0.293596 1.49514 1.10097 0.0425 
0.31 0.788074 -0.0115539 0.0134802 0.615325 6.62178 27.3048 13.0279 12.7162 -0.674897 0.0128305 -0.0118251 0.0247306 0.29375 1.50209 1.10026 0.0426715 
0.311 0.787983 -0.0115642 0.013488 0.615441 6.63449 27.3041 13.0279 12.7155 -0.673169 0.012818 -0.0118314 0.0247484 0.293903 1.50904 1.09954 0.0428429 
0.312 0.787892 -0.0115745 0.0134958 0.615556 6.64721 27.3035 13.0279 12.7148 -0.671435 0.0128054 -0.0118377 0.0247661 0.294054 1.51598 1.09882 0.0430143 
0.313 0.787802 -0.0115848 0.0135036 0.615672 6.65992 27.3028 13.0279 12.7141 -0.669695 0.0127927 -0.0118439 0.0247838 0.294205 1.52291 1.0981 0.0431856 
0.314 0.787711 -0.0115951 0.0135115 0.615788 6.67264 27.3021 13.0279 12.7134 -0.667948 0.0127799 -0.0118501 0.0248014 0.294355 1.52983 1.09737 0.0433569 
0.315 0.78762 -0.0116054 0.0135193 0.615904 6.68535 27.3014 13.0279 12.7127 -0.666195 0.012767 -0.0118563 0.0248189 0.294505 1.53673 1.09663 0.0435281 
0.316 0.787529 -0.0116157 0.0135271 0.61602 6.69806 27.3008 13.0279 12.712 -0.664435 0.0127539 -0.0118624 0.0248364 0.294653 1.54363 1.09589 0.0436992 
0.317 0.787438 -0.0116261 0.013535 0.616136 6.71077 27.3001 13.0279 12.7113 -0.662669 0.0127408 -0.0118686 0.0248539 0.294801 1.55051 1.09515 0.0438703 
0.318 0.787347 -0.0116364 0.0135428 0.616252 6.72348 27.2995 13.028 12.7106 -0.660897 0.0127275 -0.0118746 0.0248713 0.294948 1.55738 1.09441 0.0440413 
0.319 0.787256 -0.0116468 0.0135507 0.616368 6.73619 27.2988 13.028 12.71 -0.659119 0.0127141 -0.0118807 0.0248886 0.295094 1.56425 1.09366 0.0442122 
0.32 0.787164 -0.0116571 0.0135585 0.616484 6.7489 27.2981 13.028 12.7093 -0.657334 0.0127006 -0.0118867 0.0249059 0.295239 1.5711 1.0929 0.044383 
0.321 0.787073 -0.0116675 0.0135664 0.6166 6.76161 27.2975 13.028 12.7086 -0.655543 0.012687 -0.0118927 0.0249232 0.295383 1.57794 1.09214 0.0445538 
0.322 0.786982 -0.0116778 0.0135743 0.616716 6.77432 27.2968 13.028 12.7079 -0.653746 0.0126733 -0.0118986 0.0249404 0.295526 1.58477 1.09138 0.0447245 
0.323 0.78689 -0.0116882 0.0135821 0.616833 6.78703 27.2962 13.028 12.7072 -0.651943 0.0126595 -0.0119046 0.0249575 0.295669 1.59159 1.09061 0.0448951 
0.324 0.786799 -0.0116986 0.01359 0.616949 6.79974 27.2955 13.028 12.7065 -0.650133 0.0126455 -0.0119105 0.0249746 0.295811 1.59839 1.08984 0.0450657 
0.325 0.786707 -0.011709 0.0135979 0.617065 6.81244 27.2949 13.028 12.7059 -0.648317 0.0126315 -0.0119163 0.0249917 0.295952 1.60519 1.08906 0.0452361 
0.326 0.786616 -0.0117193 0.0136058 0.617182 6.82515 27.2942 13.0281 12.7052 -0.646495 0.0126173 -0.0119221 0.0250087 0.296092 1.61197 1.08828 0.0454065 
0.327 0.786524 -0.0117297 0.0136137 0.617298 6.83785 27.2936 13.0281 12.7045 -0.644667 0.012603 -0.0119279 0.0250256 0.296231 1.61875 1.08749 0.0455768 
0.328 0.786432 -0.0117401 0.0136216 0.617414 6.85056 27.2929 13.0281 12.7039 -0.642833 0.0125886 -0.0119337 0.0250425 0.29637 1.62551 1.0867 0.045747 
0.329 0.786341 -0.0117505 0.0136295 0.617531 6.86326 27.2923 13.0281 12.7032 -0.640992 0.0125741 -0.0119394 0.0250593 0.296507 1.63226 1.08591 0.0459172 
0.33 0.786249 -0.011761 0.0136374 0.617647 6.87596 27.2917 13.0281 12.7025 -0.639145 0.0125595 -0.0119451 0.0250761 0.296644 1.639 1.08511 0.0460872 
0.331 0.786157 -0.0117714 0.0136453 0.617764 6.88867 27.291 13.0281 12.7019 -0.637292 0.0125447 -0.0119508 0.0250929 0.29678 1.64572 1.0843 0.0462571 
0.332 0.786065 -0.0117818 0.0136532 0.617881 6.90137 27.2904 13.0281 12.7012 -0.635433 0.0125298 -0.0119564 0.0251096 0.296915 1.65244 1.0835 0.046427 
0.333 0.785973 -0.0117922 0.0136612 0.617997 6.91407 27.2897 13.0281 12.7005 -0.633568 0.0125149 -0.011962 0.0251262 0.297049 1.65914 1.08268 0.0465967 
0.334 0.785881 -0.0118027 0.0136691 0.618114 6.92677 27.2891 13.0282 12.6999 -0.631697 0.0124998 -0.0119676 0.0251428 0.297183 1.66584 1.08187 0.0467664 
0.335 0.785789 -0.0118131 0.013677 0.618231 6.93947 27.2885 13.0282 12.6992 -0.629819 0.0124846 -0.0119731 0.0251593 0.297315 1.67252 1.08105 0.0469359 
0.336 0.785697 -0.0118236 0.013685 0.618347 6.95217 27.2879 13.0282 12.6986 -0.627936 0.0124693 -0.0119786 0.0251758 0.297447 1.67918 1.08022 0.0471054 
0.337 0.785604 -0.011834 0.0136929 0.618464 6.96486 27.2872 13.0282 12.6979 -0.626046 0.0124538 -0.0119841 0.0251922 0.297578 1.68584 1.07939 0.0472748 
0.338 0.785512 -0.0118445 0.0137009 0.618581 6.97756 27.2866 13.0282 12.6972 -0.62415 0.0124383 -0.0119895 0.0252086 0.297708 1.69249 1.07856 0.047444 
0.339 0.78542 -0.011855 0.0137088 0.618698 6.99026 27.286 13.0282 12.6966 -0.622248 0.0124226 -0.0119949 0.025225 0.297837 1.69912 1.07772 0.0476132 
0.34 0.785327 -0.0118654 0.0137168 0.618815 7.00296 27.2854 13.0282 12.6959 -0.620341 0.0124068 -0.0120003 0.0252412 0.297966 1.70574 1.07688 0.0477822 
0.341 0.785235 -0.0118759 0.0137248 0.618932 7.01565 27.2847 13.0282 12.6953 -0.618427 0.0123909 -0.0120057 0.0252575 0.298093 1.71235 1.07603 0.0479511 
0.342 0.785142 -0.0118864 0.0137327 0.619049 7.02835 27.2841 13.0283 12.6947 -0.616507 0.0123749 -0.012011 0.0252736 0.29822 1.71894 1.07518 0.0481199 
0.343 0.78505 -0.0118969 0.0137407 0.619166 7.04104 27.2835 13.0283 12.694 -0.614581 0.0123588 -0.0120162 0.0252898 0.298346 1.72553 1.07432 0.0482887 
0.344 0.784957 -0.0119074 0.0137487 0.619283 7.05373 27.2829 13.0283 12.6934 -0.612649 0.0123426 -0.0120215 0.0253059 0.298471 1.7321 1.07346 0.0484572 
0.345 0.784865 -0.0119179 0.0137567 0.6194 7.06643 27.2823 13.0283 12.6927 -0.610711 0.0123262 -0.0120267 0.0253219 0.298595 1.73866 1.07259 0.0486257 
0.346 0.784772 -0.0119284 0.0137647 0.619517 7.07912 27.2817 13.0283 12.6921 -0.608767 0.0123098 -0.0120319 0.0253379 0.298718 1.7452 1.07173 0.0487941 
0.347 0.784679 -0.0119389 0.0137727 0.619634 7.09181 27.2811 13.0283 12.6915 -0.606817 0.0122932 -0.012037 0.0253538 0.298841 1.75174 1.07085 0.0489623 
0.348 0.784586 -0.0119495 0.0137807 0.619751 7.1045 27.2805 13.0283 12.6908 -0.604861 0.0122765 -0.0120422 0.0253697 0.298963 1.75826 1.06997 0.0491304 
0.349 0.784493 -0.01196 0.0137887 0.619869 7.11719 27.2799 13.0283 12.6902 -0.6029 0.0122597 -0.0120473 0.0253855 0.299084 1.76477 1.06909 0.0492984 
0.35 0.7844 -0.0119705 0.0137967 0.619986 7.12988 27.2793 13.0284 12.6896 -0.600932 0.0122427 -0.0120523 0.0254013 0.299204 1.77126 1.0682 0.0494663 
0.351 0.784307 -0.0119811 0.0138047 0.620103 7.14257 27.2787 13.0284 12.6889 -0.598958 0.0122257 -0.0120573 0.025417 0.299323 1.77775 1.06731 0.049634 
0.352 0.784214 -0.0119916 0.0138128 0.620221 7.15526 27.2781 13.0284 12.6883 -0.596979 0.0122086 -0.0120623 0.0254327 0.299441 1.78422 1.06641 0.0498016 
0.353 0.784121 -0.0120022 0.0138208 0.620338 7.16795 27.2775 13.0284 12.6877 -0.594993 0.0121913 -0.0120673 0.0254483 0.299559 1.79068 1.06551 0.0499691 
0.354 0.784028 -0.0120127 0.0138288 0.620455 7.18064 27.2769 13.0284 12.687 -0.593002 0.0121739 -0.0120722 0.0254639 0.299675 1.79712 1.06461 0.0501364 
0.355 0.783935 -0.0120233 0.0138369 0.620573 7.19332 27.2763 13.0284 12.6864 -0.591005 0.0121564 -0.0120771 0.0254794 0.299791 1.80356 1.0637 0.0503036 
0.356 0.783841 -0.0120338 0.0138449 0.62069 7.20601 27.2757 13.0284 12.6858 -0.589002 0.0121388 -0.012082 0.0254948 0.299906 1.80998 1.06279 0.0504707 
0.357 0.783748 -0.0120444 0.0138529 0.620808 7.21869 27.2751 13.0284 12.6852 -0.586993 0.0121211 -0.0120868 0.0255103 0.30002 1.81638 1.06187 0.0506376 
0.358 0.783655 -0.012055 0.013861 0.620925 7.23138 27.2745 13.0285 12.6846 -0.584978 0.0121032 -0.0120916 0.0255256 0.300134 1.82278 1.06094 0.0508044 
0.359 0.783561 -0.0120656 0.0138691 0.621043 7.24406 27.2739 13.0285 12.684 -0.582957 0.0120853 -0.0120964 0.0255409 0.300246 1.82916 1.06002 0.050971 
0.36 0.783468 -0.0120762 0.0138771 0.62116 7.25675 27.2733 13.0285 12.6833 -0.580931 0.0120672 -0.0121011 0.0255562 0.300358 1.83553 1.05909 0.0511375 
0.361 0.783374 -0.0120868 0.0138852 0.621278 7.26943 27.2728 13.0285 12.6827 -0.578899 0.012049 -0.0121058 0.0255714 0.300469 1.84188 1.05815 0.0513039 
0.362 0.78328 -0.0120974 0.0138933 0.621396 7.28211 27.2722 13.0285 12.6821 -0.576861 0.0120307 -0.0121105 0.0255866 0.300579 1.84822 1.05721 0.0514701 
0.363 0.783187 -0.012108 0.0139013 0.621513 7.29479 27.2716 13.0285 12.6815 -0.574817 0.0120123 -0.0121151 0.0256017 0.300688 1.85455 1.05626 0.0516361 
0.364 0.783093 -0.0121186 0.0139094 0.621631 7.30748 27.271 13.0285 12.6809 -0.572768 0.0119938 -0.0121197 0.0256168 0.300796 1.86086 1.05531 0.051802 
0.365 0.782999 -0.0121292 0.0139175 0.621749 7.32016 27.2705 13.0285 12.6803 -0.570712 0.0119751 -0.0121243 0.0256318 0.300904 1.86716 1.05436 0.0519678 
0.366 0.782905 -0.0121398 0.0139256 0.621866 7.33284 27.2699 13.0286 12.6797 -0.568651 0.0119563 -0.0121289 0.0256467 0.30101 1.87345 1.0534 0.0521333 
0.367 0.782812 -0.0121505 0.0139337 0.621984 7.34552 27.2693 13.0286 12.6791 -0.566585 0.0119375 -0.0121334 0.0256617 0.301116 1.87972 1.05244 0.0522988 
0.368 0.782718 -0.0121611 0.0139418 0.622102 7.35819 27.2688 13.0286 12.6785 -0.564512 0.0119185 -0.0121379 0.0256765 0.301221 1.88598 1.05147 0.052464 
0.369 0.782624 -0.0121717 0.0139499 0.62222 7.37087 27.2682 13.0286 12.6779 -0.562434 0.0118994 -0.0121423 0.0256913 0.301325 1.89223 1.0505 0.0526291 
0.37 0.78253 -0.0121824 0.013958 0.622338 7.38355 27.2676 13.0286 12.6773 -0.56035 0.0118802 -0.0121467 0.0257061 0.301429 1.89846 1.04952 0.0527941 
0.371 0.782436 -0.012193 0.0139661 0.622456 7.39623 27.2671 13.0286 12.6767 -0.558261 0.0118608 -0.0121511 0.0257208 0.301531 1.90468 1.04854 0.0529589 
0.372 0.782341 -0.0122037 0.0139743 0.622573 7.4089 27.2665 13.0286 12.6761 -0.556166 0.0118414 -0.0121555 0.0257354 0.301633 1.91089 1.04755 0.0531235 
0.373 0.782247 -0.0122144 0.0139824 0.622691 7.42158 27.266 13.0286 12.6755 -0.554065 0.0118218 -0.0121598 0.02575 0.301734 1.91708 1.04656 0.0532879 
0.374 0.782153 -0.012225 0.0139905 0.622809 7.43425 27.2654 13.0286 12.6749 -0.551959 0.0118021 -0.0121641 0.0257646 0.301834 1.92326 1.04557 0.0534522 
0.375 0.782059 -0.0122357 0.0139987 0.622927 7.44693 27.2649 13.0287 12.6744 -0.549847 0.0117823 -0.0121683 0.0257791 0.301933 1.92942 1.04457 0.0536163 
0.376 0.781964 -0.0122464 0.0140068 0.623045 7.4596 27.2643 13.0287 12.6738 -0.547729 0.0117624 -0.0121726 0.0257936 0.302031 1.93557 1.04357 0.0537802 
0.377 0.78187 -0.0122571 0.0140149 0.623163 7.47228 27.2638 13.0287 12.6732 -0.545606 0.0117424 -0.0121768 0.025808 0.302128 1.94171 1.04256 0.0539439 
0.378 0.781776 -0.0122677 0.0140231 0.623281 7.48495 27.2632 13.0287 12.6726 -0.543477 0.0117223 -0.0121809 0.0258223 0.302225 1.94783 1.04155 0.0541075 
0.379 0.781681 -0.0122784 0.0140312 0.623399 7.49762 27.2627 13.0287 12.672 -0.541343 0.011702 -0.012185 0.0258366 0.302321 1.95394 1.04053 0.0542709 
0.38 0.781587 -0.0122891 0.0140394 0.623518 7.51029 27.2621 13.0287 12.6714 -0.539203 0.0116816 -0.0121891 0.0258509 0.302416 1.96003 1.03951 0.054434 
0.381 0.781492 -0.0122998 0.0140476 0.623636 7.52296 27.2616 13.0287 12.6709 -0.537058 0.0116612 -0.0121932 0.0258651 0.30251 1.96611 1.03848 0.0545971 
0.382 0.781397 -0.0123105 0.0140557 0.623754 7.53564 27.2611 13.0287 12.6703 -0.534907 0.0116406 -0.0121973 0.0258792 0.302603 1.97217 1.03745 0.0547599 
0.383 0.781303 -0.0123212 0.0140639 0.623872 7.54831 27.2605 13.0288 12.6697 -0.53275 0.0116198 -0.0122013 0.0258933 0.302696 1.97822 1.03641 0.0549225 
0.384 0.781208 -0.012332 0.0140721 0.62399 7.56097 27.26 13.0288 12.6691 -0.530589 0.011599 -0.0122052 0.0259073 0.302787 1.98426 1.03537 0.0550849 
0.385 0.781113 -0.0123427 0.0140803 0.624108 7.57364 27.2595 13.0288 12.6686 -0.528421 0.0115781 -0.0122092 0.0259213 0.302878 1.99028 1.03433 0.0552472 
0.386 0.781019 -0.0123534 0.0140884 0.624227 7.58631 27.2589 13.0288 12.668 -0.526248 0.011557 -0.0122131 0.0259353 0.302968 1.99628 1.03328 0.0554092 
0.387 0.780924 -0.0123641 0.0140966 0.624345 7.59898 27.2584 13.0288 12.6674 -0.52407 0.0115358 -0.012217 0.0259492 0.303057 2.00228 1.03223 0.0555711 
0.388 0.780829 -0.0123749 0.0141048 0.624463 7.61165 27.2579 13.0288 12.6669 -0.521886 0.0115146 -0.0122208 0.025963 0.303145 2.00825 1.03117 0.0557328 
0.389 0.780734 -0.0123856 0.014113 0.624581 7.62431 27.2574 13.0288 12.6663 -0.519697 0.0114932 -0.0122246 0.0259768 0.303233 2.01422 1.03011 0.0558942 
0.39 0.780639 -0.0123964 0.0141212 0.6247 7.63698 27.2569 13.0288 12.6657 -0.517503 0.0114716 -0.0122284 0.0259906 0.303319 2.02016 1.02904 0.0560555 
0.391 0.780544 -0.0124071 0.0141294 0.624818 7.64964 27.2563 13.0288 12.6652 -0.515303 0.01145 -0.0122321 0.0260042 0.303405 2.0261 1.02797 0.0562165 
0.392 0.780449 -0.0124179 0.0141377 0.624936 7.66231 27.2558 13.0289 12.6646 -0.513097 0.0114283 -0.0122359 0.0260179 0.30349 2.03201 1.02689 0.0563773 
0.393 0.780354 -0.0124286 0.0141459 0.625055 7.67497 27.2553 13.0289 12.6641 -0.510887 0.0114064 -0.0122395 0.0260315 0.303574 2.03792 1.02581 0.056538 
0.394 0.780259 -0.0124394 0.0141541 0.625173 7.68764 27.2548 13.0289 12.6635 -0.508671 0.0113844 -0.0122432 0.026045 0.303657 2.04381 1.02473 0.0566984 
0.395 0.780163 -0.0124502 0.0141623 0.625292 7.7003 27.2543 13.0289 12.663 -0.506449 0.0113624 -0.0122468 0.0260585 0.30374 2.04968 1.02364 0.0568586 
0.396 0.780068 -0.012461 0.0141705 0.62541 7.71296 27.2538 13.0289 12.6624 -0.504223 0.0113402 -0.0122504 0.0260719 0.303821 2.05554 1.02254 0.0570186 
0.397 0.779973 -0.0124717 0.0141788 0.625528 7.72563 27.2533 13.0289 12.6619 -0.501991 0.0113178 -0.012254 0.0260853 0.303902 2.06138 1.02145 0.0571783 
0.398 0.779878 -0.0124825 0.014187 0.625647 7.73829 27.2528 13.0289 12.6613 -0.499753 0.0112954 -0.0122575 0.0260986 0.303982 2.06721 1.02034 0.0573379 
0.399 0.779782 -0.0124933 0.0141953 0.625765 7.75095 27.2523 13.0289 12.6608 -0.497511 0.0112729 -0.012261 0.0261119 0.304061 2.07302 1.01923 0.0574972 
0.4 0.779687 -0.0125041 0.0142035 0.625884 7.76361 27.2518 13.0289 12.6602 -0.495263 0.0112502 -0.0122645 0.0261252 0.304139 2.07881 1.01812 0.0576563 
0.401 0.779591 -0.0125149 0.0142118 0.626002 7.77627 27.2513 13.029 12.6597 -0.49301 0.0112274 -0.0122679 0.0261383 0.304217 2.0846 1.01701 0.0578152 
0.402 0.779496 -0.0125257 0.01422 0.626121 7.78893 27.2508 13.029 12.6591 -0.490751 0.0112045 -0.0122713 0.0261515 0.304293 2.09036 1.01588 0.0579739 
0.403 0.7794 -0.0125365 0.0142283 0.626239 7.80159 27.2503 13.029 12.6586 -0.488488 0.0111815 -0.0122747 0.0261646 0.304369 2.09611 1.01476 0.0581323 
0.404 0.779305 -0.0125473 0.0142365 0.626358 7.81425 27.2498 13.029 12.6581 -0.486219 0.0111584 -0.012278 0.0261776 0.304444 2.10185 1.01363 0.0582905 
0.405 0.779209 -0.0125582 0.0142448 0.626476 7.8269 27.2493 13.029 12.6575 -0.483945 0.0111352 -0.0122813 0.0261906 0.304518 2.10757 1.01249 0.0584484 
0.406 0.779113 -0.012569 0.0142531 0.626595 7.83956 27.2489 13.029 12.657 -0.481666 0.0111119 -0.0122846 0.0262035 0.304591 2.11327 1.01135 0.0586061 
0.407 0.779018 -0.0125798 0.0142613 0.626714 7.85222 27.2484 13.029 12.6564 -0.479382 0.0110884 -0.0122878 0.0262164 0.304663 2.11896 1.01021 0.0587636 
0.408 0.778922 -0.0125906 0.0142696 0.626832 7.86487 27.2479 13.029 12.6559 -0.477093 0.0110648 -0.012291 0.0262292 0.304735 2.12463 1.00906 0.0589209 
0.409 0.778826 -0.0126015 0.0142779 0.626951 7.87753 27.2474 13.029 12.6554 -0.474798 0.0110411 -0.0122942 0.026242 0.304806 2.13029 1.00791 0.0590779 
0.41 0.77873 -0.0126123 0.0142862 0.627069 7.89018 27.2469 13.0291 12.6549 -0.472498 0.0110173 -0.0122973 0.0262547 0.304876 2.13593 1.00675 0.0592346 
0.411 0.778634 -0.0126232 0.0142945 0.627188 7.90284 27.2465 13.0291 12.6543 -0.470194 0.0109934 -0.0123005 0.0262674 0.304945 2.14155 1.00559 0.0593911 
0.412 0.778538 -0.012634 0.0143028 0.627307 7.91549 27.246 13.0291 12.6538 -0.467884 0.0109694 -0.0123035 0.02628 0.305013 2.14716 1.00442 0.0595474 
0.413 0.778442 -0.0126449 0.0143111 0.627425 7.92815 27.2455 13.0291 12.6533 -0.465569 0.0109453 -0.0123066 0.0262926 0.30508 2.15275 1.00325 0.0597034 
0.414 0.778347 -0.0126557 0.0143194 0.627544 7.9408 27.2451 13.0291 12.6528 -0.463249 0.010921 -0.0123096 0.0263051 0.305147 2.15833 1.00207 0.0598592 
0.415 0.77825 -0.0126666 0.0143277 0.627663 7.95345 27.2446 13.0291 12.6522 -0.460924 0.0108966 -0.0123126 0.0263175 0.305212 2.16389 1.00089 0.0600147 
0.416 0.778154 -0.0126774 0.014336 0.627781 7.9661 27.2442 13.0291 12.6517 -0.458594 0.0108722 -0.0123156 0.02633 0.305277 2.16943 0.999708 0.0601699 
0.417 0.778058 -0.0126883 0.0143443 0.6279 7.97876 27.2437 13.0291 12.6512 -0.456259 0.0108476 -0.0123185 0.0263423 0.305341 2.17496 0.998518 0.0603249 
0.418 0.777962 -0.0126992 0.0143526 0.628019 7.99141 27.2432 13.0291 12.6507 -0.453919 0.0108228 -0.0123214 0.0263547 0.305404 2.18047 0.997324 0.0604797 
0.419 0.777866 -0.0127101 0.014361 0.628138 8.00406 27.2428 13.0292 12.6502 -0.451574 0.010798 -0.0123242 0.0263669 0.305467 2.18597 0.996125 0.0606341 
0.42 0.77777 -0.0127209 0.0143693 0.628256 8.01671 27.2423 13.0292 12.6497 -0.449225 0.0107731 -0.0123271 0.0263791 0.305528 2.19145 0.994922 0.0607883 
0.421 0.777673 -0.0127318 0.0143776 0.628375 8.02936 27.2419 13.0292 12.6491 -0.44687 0.010748 -0.0123299 0.0263913 0.305589 2.19691 0.993714 0.0609423 
0.422 0.777577 -0.0127427 0.014386 0.628494 8.04201 27.2414 13.0292 12.6486 -0.44451 0.0107229 -0.0123326 0.0264034 0.305649 2.20236 0.992502 0.0610959 
0.423 0.777481 -0.0127536 0.0143943 0.628613 8.05465 27.241 13.0292 12.6481 -0.442145 0.0106976 -0.0123354 0.0264155 0.305708 2.20779 0.991285 0.0612493 
0.424 0.777384 -0.0127645 0.0144026 0.628731 8.0673 27.2406 13.0292 12.6476 -0.439776 0.0106722 -0.0123381 0.0264275 0.305766 2.2132 0.990063 0.0614025 
0.425 0.777288 -0.0127754 0.014411 0.62885 8.07995 27.2401 13.0292 12.6471 -0.437401 0.0106467 -0.0123407 0.0264395 0.305823 2.21859 0.988837 0.0615553 
0.426 0.777192 -0.0127863 0.0144193 0.628969 8.0926 27.2397 13.0292 12.6466 -0.435022 0.0106211 -0.0123434 0.0264514 0.30588 2.22397 0.987607 0.0617079 
0.427 0.777095 -0.0127972 0.0144277 0.629088 8.10524 27.2393 13.0292 12.6461 -0.432638 0.0105954 -0.012346 0.0264632 0.305935 2.22934 0.986372 0.0618602 
0.428 0.776999 -0.0128082 0.014436 0.629206 8.11789 27.2388 13.0293 12.6456 -0.430249 0.0105695 -0.0123486 0.026475 0.30599 2.23468 0.985132 0.0620122 
0.429 0.776902 -0.0128191 0.0144444 0.629325 8.13053 27.2384 13.0293 12.6451 -0.427855 0.0105436 -0.0123511 0.0264868 0.306044 2.24001 0.983887 0.0621639 
0.43 0.776805 -0.01283 0.0144528 0.629444 8.14318 27.238 13.0293 12.6446 -0.425457 0.0105175 -0.0123536 0.0264985 0.306097 2.24532 0.982639 0.0623153 
0.431 0.776709 -0.0128409 0.0144611 0.629563 8.15582 27.2375 13.0293 12.6441 -0.423053 0.0104913 -0.0123561 0.0265102 0.30615 2.25062 0.981385 0.0624665 
0.432 0.776612 -0.0128519 0.0144695 0.629682 8.16847 27.2371 13.0293 12.6436 -0.420645 0.0104651 -0.0123585 0.0265218 0.306201 2.25589 0.980127 0.0626173 
0.433 0.776515 -0.0128628 0.0144779 0.6298 8.18111 27.2367 13.0293 12.6431 -0.418233 0.0104387 -0.012361 0.0265333 0.306252 2.26115 0.978865 0.0627679 
0.434 0.776419 -0.0128737 0.0144863 0.629919 8.19375 27.2363 13.0293 12.6427 -0.415815 0.0104121 -0.0123634 0.0265448 0.306302 2.2664 0.977597 0.0629182 
0.435 0.776322 -0.0128847 0.0144947 0.630038 8.20639 27.2359 13.0293 12.6422 -0.413393 0.0103855 -0.0123657 0.0265563 0.306351 2.27162 0.976326 0.0630682 
0.436 0.776225 -0.0128956 0.014503 0.630157 8.21904 27.2355 13.0293 12.6417 -0.410966 0.0103588 -0.012368 0.0265677 0.306399 2.27683 0.975049 0.0632178 
0.437 0.776128 -0.0129066 0.0145114 0.630276 8.23168 27.235 13.0293 12.6412 -0.408534 0.0103319 -0.0123703 0.026579 0.306446 2.28202 0.973769 0.0633672 
0.438 0.776032 -0.0129175 0.0145198 0.630395 8.24432 27.2346 13.0294 12.6407 -0.406098 0.010305 -0.0123726 0.0265903 0.306492 2.2872 0.972483 0.0635163 
0.439 0.775935 -0.0129285 0.0145282 0.630513 8.25696 27.2342 13.0294 12.6402 -0.403657 0.0102779 -0.0123748 0.0266016 0.306538 2.29235 0.971193 0.0636651 
0.44 0.775838 -0.0129395 0.0145366 0.630632 8.2696 27.2338 13.0294 12.6397 -0.401211 0.0102507 -0.012377 0.0266128 0.306583 2.29749 0.969899 0.0638135 
0.441 0.775741 -0.0129504 0.014545 0.630751 8.28224 27.2334 13.0294 12.6393 -0.398761 0.0102234 -0.0123792 0.0266239 0.306627 2.30262 0.9686 0.0639617 
0.442 0.775644 -0.0129614 0.0145535 0.63087 8.29488 27.233 13.0294 12.6388 -0.396306 0.010196 -0.0123813 0.026635 0.30667 2.30772 0.967296 0.0641095 
0.443 0.775547 -0.0129724 0.0145619 0.630989 8.30752 27.2326 13.0294 12.6383 -0.393847 0.0101685 -0.0123834 0.0266461 0.306712 2.31281 0.965988 0.064257 
0.444 0.77545 -0.0129833 0.0145703 0.631108 8.32015 27.2322 13.0294 12.6378 -0.391383 0.0101408 -0.0123855 0.0266571 0.306754 2.31787 0.964675 0.0644043 
0.445 0.775353 -0.0129943 0.0145787 0.631227 8.33279 27.2319 13.0294 12.6374 -0.388915 0.0101131 -0.0123875 0.026668 0.306794 2.32292 0.963358 0.0645511 
0.446 0.775255 -0.0130053 0.0145871 0.631345 8.34543 27.2315 13.0294 12.6369 -0.386442 0.0100852 -0.0123895 0.0266789 0.306834 2.32796 0.962036 0.0646977 
0.447 0.775158 -0.0130163 0.0145956 0.631464 8.35807 27.2311 13.0294 12.6364 -0.383964 0.0100573 -0.0123915 0.0266897 0.306873 2.33297 0.960709 0.064844 
0.448 0.775061 -0.0130273 0.014604 0.631583 8.3707 27.2307 13.0295 12.636 -0.381482 0.0100292 -0.0123934 0.0267005 0.306911 2.33797 0.959378 0.0649899 
0.449 0.774964 -0.0130383 0.0146124 0.631702 8.38334 27.2303 13.0295 12.6355 -0.378996 0.010001 -0.0123953 0.0267113 0.306948 2.34295 0.958042 0.0651355 
0.45 0.774867 -0.0130493 0.0146209 0.631821 8.39597 27.2299 13.0295 12.635 -0.376505 0.00997268 -0.0123972 0.026722 0.306985 2.34791 0.956702 0.0652808 
0.451 0.774769 -0.0130603 0.0146293 0.63194 8.40861 27.2296 13.0295 12.6346 -0.374009 0.00994427 -0.0123991 0.0267326 0.30702 2.35285 0.955358 0.0654257 
0.452 0.774672 -0.0130713 0.0146377 0.632059 8.42124 27.2292 13.0295 12.6341 -0.371509 0.00991574 -0.0124009 0.0267432 0.307055 2.35778 0.954008 0.0655703 
0.453 0.774575 -0.0130823 0.0146462 0.632177 8.43388 27.2288 13.0295 12.6336 -0.369005 0.00988711 -0.0124027 0.0267537 0.307089 2.36268 0.952654 0.0657146 
0.454 0.774477 -0.0130933 0.0146546 0.632296 8.44651 27.2285 13.0295 12.6332 -0.366497 0.00985837 -0.0124044 0.0267642 0.307122 2.36757 0.951296 0.0658585 
0.455 0.77438 -0.0131043 0.0146631 0.632415 8.45914 27.2281 13.0295 12.6327 -0.363984 0.00982951 -0.0124062 0.0267747 0.307154 2.37244 0.949933 0.0660021 
0.456 0.774283 -0.0131153 0.0146716 0.632534 8.47178 27.2277 13.0295 12.6323 -0.361467 0.00980055 -0.0124078 0.026785 0.307186 2.37729 0.948565 0.0661453 
0.457 0.774185 -0.0131264 0.01468 0.632653 8.48441 27.2274 13.0295 12.6318 -0.358945 0.00977147 -0.0124095 0.0267954 0.307216 2.38213 0.947193 0.0662882 
0.458 0.774088 -0.0131374 0.0146885 0.632772 8.49704 27.227 13.0296 12.6314 -0.356419 0.00974228 -0.0124111 0.0268057 0.307246 2.38694 0.945816 0.0664308 
0.459 0.77399 -0.0131484 0.014697 0.63289 8.50967 27.2267 13.0296 12.6309 -0.353889 0.00971299 -0.0124127 0.0268159 0.307275 2.39174 0.944435 0.066573 
0.46 0.773893 -0.0131595 0.0147054 0.633009 8.5223 27.2263 13.0296 12.6305 -0.351354 0.00968358 -0.0124143 0.0268261 0.307303 2.39651 0.943049 0.0667148 
0.461 0.773795 -0.0131705 0.0147139 0.633128 8.53493 27.226 13.0296 12.63 -0.348815 0.00965407 -0.0124158 0.0268362 0.30733 2.40127 0.941659 0.0668563 
0.462 0.773698 -0.0131815 0.0147224 0.633247 8.54756 27.2256 13.0296 12.6296 -0.346272 0.00962444 -0.0124173 0.0268463 0.307356 2.40601 0.940264 0.0669975 
0.463 0.7736 -0.0131926 0.0147309 0.633366 8.56019 27.2253 13.0296 12.6291 -0.343725 0.0095947 -0.0124188 0.0268563 0.307382 2.41073 0.938865 0.0671383 
0.464 0.773502 -0.0132036 0.0147393 0.633485 8.57282 27.2249 13.0296 12.6287 -0.341174 0.00956486 -0.0124202 0.0268663 0.307407 2.41544 0.937461 0.0672787 
0.465 0.773405 -0.0132147 0.0147478 0.633603 8.58545 27.2246 13.0296 12.6282 -0.338618 0.00953491 -0.0124216 0.0268762 0.307431 2.42012 0.936052 0.0674188 
0.466 0.773307 -0.0132257 0.0147563 0.633722 8.59808 27.2242 13.0296 12.6278 -0.336058 0.00950484 -0.012423 0.0268861 0.307454 2.42478 0.934639 0.0675585 
0.467 0.773209 -0.0132368 0.0147648 0.633841 8.6107 27.2239 13.0296 12.6274 -0.333494 0.00947467 -0.0124244 0.0268959 0.307476 2.42943 0.933221 0.0676978 
0.468 0.773111 -0.0132478 0.0147733 0.63396 8.62333 27.2236 13.0297 12.6269 -0.330926 0.00944439 -0.0124257 0.0269057 0.307497 2.43406 0.931799 0.0678368 
0.469 0.773014 -0.0132589 0.0147818 0.634078 8.63596 27.2232 13.0297 12.6265 -0.328354 0.009414 -0.0124269 0.0269154 0.307518 2.43866 0.930372 0.0679754 
0.47 0.772916 -0.01327 0.0147903 0.634197 8.64858 27.2229 13.0297 12.626 -0.325778 0.0093835 -0.0124282 0.0269251 0.307537 2.44325 0.92894 0.0681136 
0.471 0.772818 -0.013281 0.0147988 0.634316 8.66121 27.2226 13.0297 12.6256 -0.323197 0.00935289 -0.0124294 0.0269347 0.307556 2.44782 0.927504 0.0682514 
0.472 0.77272 -0.0132921 0.0148073 0.634435 8.67383 27.2223 13.0297 12.6252 -0.320613 0.00932218 -0.0124306 0.0269443 0.307574 2.45237 0.926064 0.0683889 
0.473 0.772622 -0.0133032 0.0148158 0.634553 8.68646 27.222 13.0297 12.6247 -0.318024 0.00929135 -0.0124317 0.0269538 0.307592 2.4569 0.924619 0.068526 
0.474 0.772525 -0.0133143 0.0148244 0.634672 8.69908 27.2216 13.0297 12.6243 -0.315432 0.00926042 -0.0124329 0.0269633 0.307608 2.46141 0.923169 0.0686627 
0.475 0.772427 -0.0133253 0.0148329 0.634791 8.71171 27.2213 13.0297 12.6239 -0.312835 0.00922938 -0.012434 0.0269727 0.307623 2.4659 0.921715 0.068799 
0.476 0.772329 -0.0133364 0.0148414 0.63491 8.72433 27.221 13.0297 12.6235 -0.310235 0.00919823 -0.012435 0.0269821 0.307638 2.47037 0.920256 0.0689349 
0.477 0.772231 -0.0133475 0.0148499 0.635028 8.73695 27.2207 13.0297 12.623 -0.30763 0.00916697 -0.012436 0.0269914 0.307652 2.47483 0.918793 0.0690705 
0.478 0.772133 -0.0133586 0.0148585 0.635147 8.74958 27.2204 13.0297 12.6226 -0.305022 0.00913561 -0.012437 0.0270007 0.307665 2.47926 0.917325 0.0692056 
0.479 0.772035 -0.0133697 0.014867 0.635266 8.7622 27.2201 13.0298 12.6222 -0.30241 0.00910414 -0.012438 0.0270099 0.307677 2.48367 0.915853 0.0693404 
0.48 0.771937 -0.0133808 0.0148755 0.635384 8.77482 27.2198 13.0298 12.6218 -0.299793 0.00907256 -0.0124389 0.027019 0.307688 2.48807 0.914376 0.0694747 
0.481 0.771839 -0.0133919 0.0148841 0.635503 8.78744 27.2195 13.0298 12.6214 -0.297173 0.00904087 -0.0124398 0.0270282 0.307699 2.49244 0.912894 0.0696087 
0.482 0.771741 -0.013403 0.0148926 0.635622 8.80006 27.2192 13.0298 12.6209 -0.294549 0.00900908 -0.0124407 0.0270372 0.307709 2.4968 0.911408 0.0697423 
0.483 0.771643 -0.0134141 0.0149011 0.63574 8.81269 27.2189 13.0298 12.6205 -0.291921 0.00897717 -0.0124415 0.0270462 0.307717 2.50113 0.909918 0.0698754 
0.484 0.771544 -0.0134252 0.0149097 0.635859 8.82531 27.2186 13.0298 12.6201 -0.28929 0.00894517 -0.0124424 0.0270552 0.307725 2.50544 0.908423 0.0700082 
0.485 0.771446 -0.0134363 0.0149182 0.635978 8.83793 27.2183 13.0298 12.6197 -0.286654 0.00891305 -0.0124431 0.0270641 0.307733 2.50974 0.906923 0.0701405 
0.486 0.771348 -0.0134474 0.0149268 0.636096 8.85055 27.218 13.0298 12.6193 -0.284015 0.00888083 -0.0124439 0.027073 0.307739 2.51401 0.905419 0.0702725 
0.487 0.77125 -0.0134585 0.0149353 0.636215 8.86316 27.2178 13.0298 12.6189 -0.281372 0.0088485 -0.0124446 0.0270818 0.307744 2.51827 0.90391 0.070404 
0.488 0.771152 -0.0134696 0.0149439 0.636333 8.87578 27.2175 13.0298 12.6185 -0.278725 0.00881607 -0.0124453 0.0270905 0.307749 2.5225 0.902397 0.0705351 
0.489 0.771054 -0.0134808 0.0149525 0.636452 8.8884 27.2172 13.0298 12.6181 -0.276074 0.00878353 -0.0124459 0.0270992 0.307753 2.52671 0.900879 0.0706658 
0.49 0.770955 -0.0134919 0.014961 0.636571 8.90102 27.2169 13.0299 12.6177 -0.27342 0.00875089 -0.0124465 0.0271079 0.307756 2.53091 0.899356 0.070796 
0.491 0.770857 -0.013503 0.0149696 0.636689 8.91364 27.2167 13.0299 12.6173 -0.270762 0.00871813 -0.0124471 0.0271165 0.307758 2.53508 0.897829 0.0709259 
0.492 0.770759 -0.0135141 0.0149781 0.636808 8.92625 27.2164 13.0299 12.6169 -0.268101 0.00868528 -0.0124477 0.0271251 0.307759 2.53923 0.896298 0.0710553 
0.493 0.770661 -0.0135253 0.0149867 0.636926 8.93887 27.2161 13.0299 12.6165 -0.265435 0.00865231 -0.0124482 0.0271336 0.30776 2.54337 0.894762 0.0711843 
0.494 0.770562 -0.0135364 0.0149953 0.637045 8.95149 27.2159 13.0299 12.6161 -0.262766 0.00861925 -0.0124487 0.027142 0.307759 2.54748 0.893221 0.0713129 
0.495 0.770464 -0.0135475 0.0150039 0.637163 8.9641 27.2156 13.0299 12.6157 -0.260094 0.00858607 -0.0124491 0.0271504 0.307758 2.55157 0.891676 0.071441 
0.496 0.770366 -0.0135587 0.0150124 0.637282 8.97672 27.2153 13.0299 12.6153 -0.257418 0.0085528 -0.0124496 0.0271588 0.307756 2.55564 0.890127 0.0715687 
0.497 0.770267 -0.0135698 0.015021 0.6374 8.98933 27.2151 13.0299 12.6149 -0.254738 0.00851941 -0.01245 0.0271671 0.307753 2.55969 0.888573 0.071696 
0.498 0.770169 -0.013581 0.0150296 0.637518 9.00195 27.2148 13.0299 12.6145 -0.252055 0.00848593 -0.0124503 0.0271753 0.30775 2.56372 0.887014 0.0718228 
0.499 0.77007 -0.0135921 0.0150382 0.637637 9.01456 27.2146 13.0299 12.6141 -0.249368 0.00845233 -0.0124507 0.0271835 0.307745 2.56773 0.885451 0.0719492 
0.5 0.769972 -0.0136033 0.0150468 0.637755 9.02718 27.2143 13.0299 12.6137 -0.246677 0.00841864 -0.012451 0.0271917 0.30774 2.57172 0.883883 0.0720752 
0.501 0.769874 -0.0136144 0.0150554 0.637874 9.03979 27.2141 13.0299 12.6133 -0.243984 0.00838484 -0.0124512 0.0271998 0.307733 2.57568 0.882311 0.0722007 
0.502 0.769775 -0.0136256 0.015064 0.637992 9.0524 27.2138 13.03 12.6129 -0.241286 0.00835093 -0.0124515 0.0272078 0.307726 2.57963 0.880734 0.0723258 
0.503 0.769677 -0.0136367 0.0150726 0.63811 9.06502 27.2136 13.03 12.6125 -0.238586 0.00831693 -0.0124517 0.0272158 0.307718 2.58356 0.879152 0.0724504 
0.504 0.769578 -0.0136479 0.0150812 0.638229 9.07763 27.2134 13.03 12.6122 -0.235881 0.00828282 -0.0124519 0.0272238 0.30771 2.58746 0.877567 0.0725745 
0.505 0.76948 -0.013659 0.0150898 0.638347 9.09024 27.2131 13.03 12.6118 -0.233174 0.0082486 -0.012452 0.0272317 0.3077 2.59134 0.875976 0.0726982 
0.506 0.769381 -0.0136702 0.0150984 0.638465 9.10285 27.2129 13.03 12.6114 -0.230463 0.00821428 -0.0124521 0.0272395 0.30769 2.59521 0.874381 0.0728215 
0.507 0.769283 -0.0136814 0.015107 0.638583 9.11546 27.2127 13.03 12.611 -0.227748 0.00817986 -0.0124522 0.0272473 0.307679 2.59905 0.872782 0.0729443 
0.508 0.769184 -0.0136925 0.0151156 0.638702 9.12807 27.2124 13.03 12.6106 -0.225031 0.00814534 -0.0124522 0.027255 0.307666 2.60287 0.871178 0.0730666 
0.509 0.769086 -0.0137037 0.0151242 0.63882 9.14068 27.2122 13.03 12.6103 -0.222309 0.00811071 -0.0124523 0.0272627 0.307654 2.60666 0.869569 0.0731884 
0.51 0.768987 -0.0137149 0.0151328 0.638938 9.15329 27.212 13.03 12.6099 -0.219585 0.00807598 -0.0124522 0.0272704 0.30764 2.61044 0.867956 0.0733098 
0.511 0.768888 -0.013726 0.0151415 0.639056 9.1659 27.2118 13.03 12.6095 -0.216857 0.00804115 -0.0124522 0.027278 0.307625 2.6142 0.866339 0.0734308 
0.512 0.76879 -0.0137372 0.0151501 0.639174 9.17851 27.2116 13.03 12.6091 -0.214126 0.00800622 -0.0124521 0.0272855 0.30761 2.61793 0.864717 0.0735512 
0.513 0.768691 -0.0137484 0.0151587 0.639293 9.19112 27.2113 13.03 12.6088 -0.211392 0.00797118 -0.012452 0.027293 0.307594 2.62164 0.86309 0.0736712 
0.514 0.768593 -0.0137596 0.0151673 0.639411 9.20373 27.2111 13.0301 12.6084 -0.208655 0.00793605 -0.0124519 0.0273004 0.307576 2.62533 0.861459 0.0737907 
0.515 0.768494 -0.0137707 0.0151759 0.639529 9.21634 27.2109 13.0301 12.608 -0.205914 0.00790081 -0.0124517 0.0273078 0.307559 2.629 0.859824 0.0739097 
0.516 0.768395 -0.0137819 0.0151846 0.639647 9.22895 27.2107 13.0301 12.6077 -0.20317 0.00786547 -0.0124515 0.0273151 0.30754 2.63265 0.858184 0.0740283 
0.517 0.768297 -0.0137931 0.0151932 0.639765 9.24155 27.2105 13.0301 12.6073 -0.200423 0.00783003 -0.0124513 0.0273224 0.30752 2.63628 0.856539 0.0741464 
0.518 0.768198 -0.0138043 0.0152018 0.639883 9.25416 27.2103 13.0301 12.6069 -0.197673 0.00779448 -0.012451 0.0273297 0.3075 2.63988 0.85489 0.0742639 
0.519 0.768099 -0.0138155 0.0152105 0.640001 9.26677 27.2101 13.0301 12.6066 -0.19492 0.00775884 -0.0124507 0.0273368 0.307478 2.64346 0.853237 0.074381 
0.52 0.768001 -0.0138267 0.0152191 0.640119 9.27937 27.2099 13.0301 12.6062 -0.192164 0.0077231 -0.0124504 0.027344 0.307456 2.64702 0.851578 0.0744976 
0.521 0.767902 -0.0138379 0.0152278 0.640237 9.29198 27.2097 13.0301 12.6058 -0.189404 0.00768725 -0.01245 0.0273511 0.307433 2.65056 0.849916 0.0746138 
0.522 0.767803 -0.0138491 0.0152364 0.640355 9.30459 27.2096 13.0301 12.6055 -0.186642 0.00765131 -0.0124496 0.0273581 0.30741 2.65408 0.848249 0.0747294 
0.523 0.767704 -0.0138603 0.0152451 0.640473 9.31719 27.2094 13.0301 12.6051 -0.183876 0.00761527 -0.0124492 0.0273651 0.307385 2.65757 0.846577 0.0748445 
0.524 0.767606 -0.0138715 0.0152537 0.640591 9.3298 27.2092 13.0301 12.6048 -0.181107 0.00757913 -0.0124487 0.027372 0.30736 2.66104 0.844901 0.0749591 
0.525 0.767507 -0.0138827 0.0152624 0.640708 9.3424 27.209 13.0301 12.6044 -0.178336 0.00754288 -0.0124482 0.0273789 0.307333 2.66449 0.843221 0.0750732 
0.526 0.767408 -0.0138939 0.015271 0.640826 9.355 27.2088 13.0301 12.6041 -0.175561 0.00750654 -0.0124477 0.0273857 0.307306 2.66792 0.841535 0.0751868 
0.527 0.767309 -0.0139051 0.0152797 0.640944 9.36761 27.2087 13.0302 12.6037 -0.172784 0.0074701 -0.0124472 0.0273925 0.307278 2.67133 0.839846 0.0753 
0.528 0.767211 -0.0139163 0.0152883 0.641062 9.38021 27.2085 13.0302 12.6034 -0.170003 0.00743356 -0.0124466 0.0273992 0.307249 2.67471 0.838152 0.0754125 
0.529 0.767112 -0.0139275 0.015297 0.64118 9.39282 27.2083 13.0302 12.603 -0.16722 0.00739692 -0.012446 0.0274059 0.30722 2.67807 0.836453 0.0755246 
0.53 0.767013 -0.0139387 0.0153056 0.641297 9.40542 27.2081 13.0302 12.6027 -0.164434 0.00736019 -0.0124453 0.0274125 0.307189 2.68141 0.83475 0.0756362 
0.531 0.766914 -0.0139499 0.0153143 0.641415 9.41802 27.208 13.0302 12.6023 -0.161645 0.00732335 -0.0124446 0.0274191 0.307158 2.68472 0.833043 0.0757473 
0.532 0.766816 -0.0139611 0.015323 0.641533 9.43062 27.2078 13.0302 12.602 -0.158853 0.00728642 -0.0124439 0.0274256 0.307126 2.68802 0.831331 0.0758578 
0.533 0.766717 -0.0139724 0.0153316 0.64165 9.44322 27.2077 13.0302 12.6016 -0.156058 0.00724939 -0.0124432 0.0274321 0.307093 2.69129 0.829614 0.0759678 
0.534 0.766618 -0.0139836 0.0153403 0.641768 9.45583 27.2075 13.0302 12.6013 -0.153261 0.00721226 -0.0124424 0.0274385 0.307059 2.69453 0.827893 0.0760773 
0.535 0.766519 -0.0139948 0.015349 0.641886 9.46843 27.2074 13.0302 12.6009 -0.15046 0.00717504 -0.0124416 0.0274449 0.307024 2.69776 0.826168 0.0761863 
0.536 0.76642 -0.014006 0.0153577 0.642003 9.48103 27.2072 13.0302 12.6006 -0.147657 0.00713772 -0.0124408 0.0274512 0.306989 2.70096 0.824438 0.0762947 
0.537 0.766321 -0.0140172 0.0153663 0.642121 9.49363 27.2071 13.0302 12.6003 -0.144851 0.0071003 -0.0124399 0.0274574 0.306953 2.70414 0.822704 0.0764026 
0.538 0.766223 -0.0140285 0.015375 0.642238 9.50623 27.2069 13.0302 12.5999 -0.142043 0.00706278 -0.012439 0.0274637 0.306915 2.7073 0.820965 0.07651 
0.539 0.766124 -0.0140397 0.0153837 0.642356 9.51883 27.2068 13.0302 12.5996 -0.139232 0.00702517 -0.0124381 0.0274698 0.306877 2.71043 0.819221 0.0766168 
0.54 0.766025 -0.0140509 0.0153924 0.642473 9.53143 27.2066 13.0302 12.5993 -0.136418 0.00698746 -0.0124371 0.0274759 0.306839 2.71354 0.817474 0.0767231 
0.541 0.765926 -0.0140621 0.0154011 0.642591 9.54403 27.2065 13.0303 12.5989 -0.133601 0.00694966 -0.0124361 0.027482 0.306799 2.71663 0.815721 0.0768289 
0.542 0.765827 -0.0140734 0.0154098 0.642708 9.55663 27.2064 13.0303 12.5986 -0.130782 0.00691176 -0.0124351 0.027488 0.306758 2.71969 0.813965 0.0769341 
0.543 0.765728 -0.0140846 0.0154184 0.642825 9.56922 27.2062 13.0303 12.5983 -0.12796 0.00687377 -0.0124341 0.027494 0.306717 2.72273 0.812203 0.0770387 
0.544 0.765629 -0.0140958 0.0154271 0.642943 9.58182 27.2061 13.0303 12.5979 -0.125136 0.00683568 -0.012433 0.0274999 0.306675 2.72575 0.810438 0.0771429 
0.545 0.76553 -0.0141071 0.0154358 0.64306 9.59442 27.206 13.0303 12.5976 -0.122309 0.00679749 -0.0124319 0.0275058 0.306632 2.72874 0.808667 0.0772464 
0.546 0.765431 -0.0141183 0.0154445 0.643177 9.60702 27.2059 13.0303 12.5973 -0.119479 0.00675922 -0.0124307 0.0275116 0.306588 2.73172 0.806893 0.0773494 
0.547 0.765333 -0.0141296 0.0154532 0.643294 9.61961 27.2058 13.0303 12.597 -0.116648 0.00672084 -0.0124295 0.0275173 0.306543 2.73466 0.805114 0.0774519 
0.548 0.765234 -0.0141408 0.0154619 0.643412 9.63221 27.2056 13.0303 12.5967 -0.113813 0.00668238 -0.0124283 0.027523 0.306498 2.73759 0.80333 0.0775538 
0.549 0.765135 -0.014152 0.0154706 0.643529 9.64481 27.2055 13.0303 12.5963 -0.110976 0.00664382 -0.0124271 0.0275287 0.306451 2.74049 0.801542 0.0776551 
0.55 0.765036 -0.0141633 0.0154793 0.643646 9.6574 27.2054 13.0303 12.596 -0.108137 0.00660516 -0.0124258 0.0275343 0.306404 2.74337 0.79975 0.0777559 
0.551 0.764937 -0.0141745 0.015488 0.643763 9.67 27.2053 13.0303 12.5957 -0.105295 0.00656642 -0.0124245 0.0275399 0.306356 2.74622 0.797953 0.0778561 
0.552 0.764838 -0.0141858 0.0154967 0.64388 9.6826 27.2052 13.0303 12.5954 -0.102451 0.00652758 -0.0124231 0.0275454 0.306307 2.74905 0.796152 0.0779558 
0.553 0.764739 -0.014197 0.0155054 0.643997 9.69519 27.2051 13.0303 12.5951 -0.0996044 0.00648864 -0.0124218 0.0275508 0.306258 2.75186 0.794346 0.0780548 
0.554 0.76464 -0.0142083 0.0155141 0.644114 9.70779 27.205 13.0303 12.5947 -0.0967555 0.00644962 -0.0124204 0.0275562 0.306207 2.75464 0.792536 0.0781533 
0.555 0.764541 -0.0142195 0.0155229 0.644231 9.72038 27.2049 13.0304 12.5944 -0.0939043 0.0064105 -0.0124189 0.0275616 0.306156 2.7574 0.790721 0.0782513 
0.556 0.764442 -0.0142308 0.0155316 0.644348 9.73297 27.2048 13.0304 12.5941 -0.0910508 0.00637129 -0.0124175 0.0275669 0.306104 2.76013 0.788902 0.0783486 
0.557 0.764343 -0.014242 0.0155403 0.644465 9.74557 27.2047 13.0304 12.5938 -0.088195 0.00633199 -0.012416 0.0275721 0.30605 2.76284 0.787079 0.0784454 
0.558 0.764245 -0.0142533 0.015549 0.644582 9.75816 27.2046 13.0304 12.5935 -0.085337 0.0062926 -0.0124144 0.0275773 0.305997 2.76553 0.785251 0.0785415 
0.559 0.764146 -0.0142645 0.0155577 0.644698 9.77076 27.2046 13.0304 12.5932 -0.0824767 0.00625311 -0.0124129 0.0275825 0.305942 2.76819 0.783418 0.0786371 
0.56 0.764047 -0.0142758 0.0155664 0.644815 9.78335 27.2045 13.0304 12.5929 -0.0796142 0.00621354 -0.0124113 0.0275876 0.305886 2.77083 0.781581 0.0787321 
0.561 0.763948 -0.014287 0.0155752 0.644932 9.79594 27.2044 13.0304 12.5926 -0.0767495 0.00617387 -0.0124096 0.0275926 0.30583 2.77344 0.77974 0.0788265 
0.562 0.763849 -0.0142983 0.0155839 0.645049 9.80853 27.2043 13.0304 12.5923 -0.0738827 0.00613412 -0.012408 0.0275976 0.305773 2.77603 0.777895 0.0789204 
0.563 0.76375 -0.0143095 0.0155926 0.645165 9.82113 27.2043 13.0304 12.592 -0.0710137 0.00609427 -0.0124063 0.0276026 0.305715 2.7786 0.776044 0.0790136 
0.564 0.763651 -0.0143208 0.0156013 0.645282 9.83372 27.2042 13.0304 12.5917 -0.0681426 0.00605434 -0.0124046 0.0276075 0.305656 2.78114 0.77419 0.0791062 
0.565 0.763552 -0.0143321 0.0156101 0.645398 9.84631 27.2041 13.0304 12.5914 -0.0652694 0.00601431 -0.0124028 0.0276123 0.305596 2.78366 0.772331 0.0791982 
0.566 0.763453 -0.0143433 0.0156188 0.645515 9.8589 27.2041 13.0304 12.5911 -0.0623941 0.0059742 -0.012401 0.0276171 0.305535 2.78615 0.770468 0.0792897 
0.567 0.763354 -0.0143546 0.0156275 0.645631 9.87149 27.204 13.0304 12.5908 -0.0595168 0.005934 -0.0123992 0.0276218 0.305474 2.78862 0.7686 0.0793805 
0.568 0.763255 -0.0143658 0.0156363 0.645748 9.88408 27.2039 13.0304 12.5905 -0.0566375 0.00589371 -0.0123974 0.0276265 0.305412 2.79106 0.766728 0.0794707 
0.569 0.763156 -0.0143771 0.015645 0.645864 9.89667 27.2039 13.0304 12.5902 -0.0537562 0.00585333 -0.0123955 0.0276312 0.305349 2.79348 0.764851 0.0795603 
0.57 0.763058 -0.0143884 0.0156537 0.645981 9.90926 27.2038 13.0304 12.5899 -0.0508729 0.00581286 -0.0123936 0.0276358 0.305285 2.79587 0.76297 0.0796493 
0.571 0.762959 -0.0143996 0.0156625 0.646097 9.92185 27.2038 13.0304 12.5896 -0.0479876 0.00577231 -0.0123917 0.0276403 0.30522 2.79824 0.761085 0.0797376 
0.572 0.76286 -0.0144109 0.0156712 0.646213 9.93444 27.2037 13.0305 12.5893 -0.0451005 0.00573167 -0.0123897 0.0276448 0.305154 2.80059 0.759195 0.0798254 
0.573 0.762761 -0.0144222 0.01568 0.64633 9.94703 27.2037 13.0305 12.5891 -0.0422114 0.00569094 -0.0123877 0.0276492 0.305088 2.80291 0.7573 0.0799125 
0.574 0.762662 -0.0144334 0.0156887 0.646446 9.95962 27.2036 13.0305 12.5888 -0.0393204 0.00565012 -0.0123856 0.0276536 0.305021 2.8052 0.755402 0.079999 
0.575 0.762563 -0.0144447 0.0156974 0.646562 9.97221 27.2036 13.0305 12.5885 -0.0364276 0.00560922 -0.0123836 0.027658 0.304953 2.80747 0.753499 0.0800849 
0.576 0.762464 -0.014456 0.0157062 0.646678 9.9848 27.2036 13.0305 12.5882 -0.033533 0.00556823 -0.0123815 0.0276622 0.304884 2.80972 0.751591 0.0801701 
0.577 0.762365 -0.0144672 0.0157149 0.646794 9.99738 27.2035 13.0305 12.5879 -0.0306365 0.00552716 -0.0123793 0.0276665 0.304814 2.81194 0.749679 0.0802547 
0.578 0.762266 -0.0144785 0.0157237 0.64691 10.01 27.2035 13.0305 12.5876 -0.0277383 0.005486 -0.0123772 0.0276707 0.304743 2.81413 0.747763 0.0803387 
0.579 0.762167 -0.0144898 0.0157324 0.647026 10.0226 27.2035 13.0305 12.5874 -0.0248383 0.00544475 -0.012375 0.0276748 0.304672 2.8163 0.745843 0.080422 
0.58 0.762069 -0.0145011 0.0157412 0.647142 10.0351 27.2035 13.0305 12.5871 -0.0219366 0.00540342 -0.0123727 0.0276789 0.3046 2.81844 0.743918 0.0805047 
0.581 0.76197 -0.0145123 0.0157499 0.647258 10.0477 27.2034 13.0305 12.5868 -0.0190332 0.00536201 -0.0123705 0.0276829 0.304527 2.82056 0.741988 0.0805868 
0.582 0.761871 -0.0145236 0.0157587 0.647374 10.0603 27.2034 13.0305 12.5865 -0.0161281 0.00532051 -0.0123682 0.0276869 0.304453 2.82266 0.740054 0.0806682 
0.583 0.761772 -0.0145349 0.0157674 0.64749 10.0729 27.2034 13.0305 12.5863 -0.0132213 0.00527893 -0.0123659 0.0276908 0.304378 2.82472 0.738116 0.080749 
0.584 0.761673 -0.0145462 0.0157762 0.647606 10.0855 27.2034 13.0305 12.586 -0.010313 0.00523726 -0.0123635 0.0276947 0.304302 2.82677 0.736174 0.0808291 
0.585 0.761574 -0.0145574 0.015785 0.647722 10.0981 27.2034 13.0305 12.5857 -0.00740295 0.00519551 -0.0123611 0.0276985 0.304226 2.82878 0.734227 0.0809086 
0.586 0.761476 -0.0145687 0.0157937 0.647837 10.1107 27.2034 13.0305 12.5854 -0.00449137 0.00515368 -0.0123587 0.0277023 0.304148 2.83078 0.732276 0.0809874 
0.587 0.761377 -0.01458 0.0158025 0.647953 10.1232 27.2034 13.0305 12.5852 -0.00157822 0.00511177 -0.0123563 0.027706 0.30407 2.83274 0.73032 0.0810655 
0.588 0.761278 -0.0145913 0.0158112 0.648069 10.1358 27.2034 13.0305 12.5849 0.00133645 0.00506977 -0.0123538 0.0277097 0.303991 2.83468 0.72836 0.081143 
0.589 0.761179 -0.0146025 0.01582 0.648184 10.1484 27.2034 13.0305 12.5846 0.00425264 0.00502769 -0.0123513 0.0277133 0.303912 2.8366 0.726395 0.0812199 
0.59 0.76108 -0.0146138 0.0158288 0.6483 10.161 27.2034 13.0305 12.5844 0.0071703 0.00498553 -0.0123487 0.0277169 0.303831 2.83849 0.724427 0.081296 
0.591 0.760981 -0.0146251 0.0158375 0.648415 10.1736 27.2034 13.0306 12.5841 0.0100894 0.00494329 -0.0123462 0.0277204 0.303749 2.84035 0.722454 0.0813715 
0.592 0.760883 -0.0146364 0.0158463 0.648531 10.1862 27.2034 13.0306 12.5838 0.01301 0.00490097 -0.0123436 0.0277239 0.303667 2.84218 0.720476 0.0814464 
0.593 0.760784 -0.0146477 0.0158551 0.648646 10.1988 27.2034 13.0306 12.5836 0.015932 0.00485857 -0.0123409 0.0277273 0.303584 2.844 0.718494 0.0815205 
0.594 0.760685 -0.0146589 0.0158638 0.648762 10.2113 27.2034 13.0306 12.5833 0.0188553 0.00481608 -0.0123382 0.0277307 0.3035 2.84578 0.716508 0.081594 
0.595 0.760586 -0.0146702 0.0158726 0.648877 10.2239 27.2035 13.0306 12.5831 0.02178 0.00477352 -0.0123355 0.027734 0.303415 2.84754 0.714518 0.0816668 
0.596 0.760488 -0.0146815 0.0158814 0.648992 10.2365 27.2035 13.0306 12.5828 0.0247061 0.00473088 -0.0123328 0.0277373 0.303329 2.84927 0.712523 0.0817389 
0.597 0.760389 -0.0146928 0.0158901 0.649107 10.2491 27.2035 13.0306 12.5826 0.0276334 0.00468816 -0.01233 0.0277405 0.303243 2.85098 0.710523 0.0818103 
0.598 0.76029 -0.0147041 0.0158989 0.649222 10.2617 27.2035 13.0306 12.5823 0.0305621 0.00464536 -0.0123272 0.0277437 0.303156 2.85266 0.70852 0.0818811 
0.599 0.760191 -0.0147154 0.0159077 0.649338 10.2743 27.2036 13.0306 12.5821 0.0334919 0.00460248 -0.0123244 0.0277468 0.303067 2.85431 0.706512 0.0819511 
0.6 0.760093 -0.0147266 0.0159165 0.649453 10.2868 27.2036 13.0306 12.5818 0.0364231 0.00455952 -0.0123215 0.0277498 0.302978 2.85594 0.7045 0.0820205 
0.601 0.759994 -0.0147379 0.0159252 0.649568 10.2994 27.2036 13.0306 12.5816 0.0393554 0.00451649 -0.0123187 0.0277529 0.302889 2.85754 0.702483 0.0820892 
0.602 0.759895 -0.0147492 0.015934 0.649683 10.312 27.2037 13.0306 12.5813 0.0422889 0.00447337 -0.0123157 0.0277558 0.302798 2.85912 0.700462 0.0821572 
0.603 0.759797 -0.0147605 0.0159428 0.649798 10.3246 27.2037 13.0306 12.5811 0.0452235 0.00443018 -0.0123128 0.0277587 0.302706 2.86067 0.698437 0.0822244 
0.604 0.759698 -0.0147718 0.0159516 0.649912 10.3372 27.2038 13.0306 12.5808 0.0481593 0.00438692 -0.0123098 0.0277616 0.302614 2.86219 0.696407 0.082291 
0.605 0.759599 -0.0147831 0.0159604 0.650027 10.3497 27.2038 13.0306 12.5806 0.0510962 0.00434358 -0.0123068 0.0277644 0.302521 2.86368 0.694373 0.0823569 
0.606 0.759501 -0.0147943 0.0159691 0.650142 10.3623 27.2039 13.0306 12.5803 0.0540342 0.00430016 -0.0123037 0.0277672 0.302427 2.86515 0.692335 0.082422 
0.607 0.759402 -0.0148056 0.0159779 0.650257 10.3749 27.2039 13.0306 12.5801 0.0569732 0.00425667 -0.0123006 0.0277699 0.302332 2.86659 0.690292 0.0824865 
0.608 0.759304 -0.0148169 0.0159867 0.650371 10.3875 27.204 13.0306 12.5798 0.0599132 0.0042131 -0.0122975 0.0277725 0.302236 2.86801 0.688245 0.0825502 
0.609 0.759205 -0.0148282 0.0159955 0.650486 10.4001 27.2041 13.0306 12.5796 0.0628543 0.00416945 -0.0122944 0.0277751 0.30214 2.8694 0.686194 0.0826133 
0.61 0.759106 -0.0148395 0.0160043 0.650601 10.4126 27.2041 13.0306 12.5794 0.0657963 0.00412574 -0.0122912 0.0277777 0.302042 2.87076 0.684139 0.0826756 
0.611 0.759008 -0.0148508 0.0160131 0.650715 10.4252 27.2042 13.0306 12.5791 0.0687392 0.00408195 -0.012288 0.0277802 0.301944 2.87209 0.682079 0.0827372 
0.612 0.758909 -0.014862 0.0160219 0.65083 10.4378 27.2043 13.0306 12.5789 0.0716831 0.00403808 -0.0122847 0.0277827 0.301845 2.8734 0.680015 0.082798 
0.613 0.758811 -0.0148733 0.0160306 0.650944 10.4504 27.2043 13.0307 12.5787 0.0746279 0.00399414 -0.0122814 0.0277851 0.301745 2.87468 0.677946 0.0828581 
0.614 0.758712 -0.0148846 0.0160394 0.651058 10.463 27.2044 13.0307 12.5784 0.0775735 0.00395013 -0.0122781 0.0277874 0.301645 2.87593 0.675873 0.0829176 
0.615 0.758614 -0.0148959 0.0160482 0.651173 10.4755 27.2045 13.0307 12.5782 0.08052 0.00390605 -0.0122748 0.0277897 0.301543 2.87716 0.673796 0.0829762 
0.616 0.758515 -0.0149072 0.016057 0.651287 10.4881 27.2046 13.0307 12.578 0.0834672 0.00386189 -0.0122714 0.027792 0.301441 2.87836 0.671715 0.0830342 
0.617 0.758417 -0.0149185 0.0160658 0.651401 10.5007 27.2047 13.0307 12.5777 0.0864153 0.00381766 -0.012268 0.0277942 0.301338 2.87953 0.669629 0.0830914 
0.618 0.758318 -0.0149297 0.0160746 0.651515 10.5133 27.2047 13.0307 12.5775 0.0893641 0.00377336 -0.0122646 0.0277963 0.301233 2.88067 0.667539 0.0831478 
0.619 0.75822 -0.014941 0.0160834 0.651629 10.5258 27.2048 13.0307 12.5773 0.0923137 0.00372899 -0.0122611 0.0277984 0.301129 2.88179 0.665445 0.0832036 
0.62 0.758122 -0.0149523 0.0160922 0.651743 10.5384 27.2049 13.0307 12.5771 0.095264 0.00368455 -0.0122576 0.0278005 0.301023 2.88288 0.663346 0.0832585 
0.621 0.758023 -0.0149636 0.016101 0.651857 10.551 27.205 13.0307 12.5768 0.098215 0.00364004 -0.0122541 0.0278025 0.300916 2.88394 0.661244 0.0833128 
0.622 0.757925 -0.0149749 0.0161098 0.651971 10.5636 27.2051 13.0307 12.5766 0.101167 0.00359546 -0.0122505 0.0278044 0.300809 2.88497 0.659136 0.0833662 
0.623 0.757826 -0.0149862 0.0161186 0.652085 10.5762 27.2052 13.0307 12.5764 0.104119 0.00355081 -0.0122469 0.0278063 0.300701 2.88598 0.657025 0.083419 
0.624 0.757728 -0.0149974 0.0161274 0.652199 10.5887 27.2053 13.0307 12.5762 0.107072 0.0035061 -0.0122433 0.0278082 0.300592 2.88696 0.654909 0.0834709 
0.625 0.75763 -0.0150087 0.0161362 0.652313 10.6013 27.2054 13.0307 12.576 0.110025 0.00346131 -0.0122397 0.0278099 0.300482 2.88791 0.652789 0.0835221 
0.626 0.757531 -0.01502 0.016145 0.652426 10.6139 27.2056 13.0307 12.5758 0.112979 0.00341646 -0.012236 0.0278117 0.300371 2.88883 0.650665 0.0835726 
0.627 0.757433 -0.0150313 0.0161538 0.65254 10.6265 27.2057 13.0307 12.5755 0.115933 0.00337153 -0.0122322 0.0278134 0.300259 2.88973 0.648537 0.0836223 
0.628 0.757335 -0.0150426 0.0161626 0.652653 10.639 27.2058 13.0307 12.5753 0.118888 0.00332654 -0.0122285 0.027815 0.300147 2.89059 0.646404 0.0836712 
0.629 0.757237 -0.0150539 0.0161714 0.652767 10.6516 27.2059 13.0307 12.5751 0.121844 0.00328149 -0.0122247 0.0278166 0.300034 2.89143 0.644267 0.0837193 
0.63 0.757138 -0.0150651 0.0161802 0.65288 10.6642 27.206 13.0307 12.5749 0.1248 0.00323636 -0.0122209 0.0278182 0.29992 2.89225 0.642126 0.0837667 
0.631 0.75704 -0.0150764 0.016189 0.652994 10.6768 27.2062 13.0307 12.5747 0.127756 0.00319118 -0.012217 0.0278196 0.299805 2.89303 0.63998 0.0838133 
0.632 0.756942 -0.0150877 0.0161978 0.653107 10.6893 27.2063 13.0307 12.5745 0.130713 0.00314592 -0.0122132 0.0278211 0.299689 2.89378 0.63783 0.0838591 
0.633 0.756844 -0.015099 0.0162066 0.65322 10.7019 27.2064 13.0307 12.5743 0.13367 0.0031006 -0.0122092 0.0278225 0.299572 2.89451 0.635676 0.0839042 
0.634 0.756746 -0.0151103 0.0162154 0.653334 10.7145 27.2065 13.0307 12.5741 0.136627 0.00305522 -0.0122053 0.0278238 0.299455 2.89521 0.633518 0.0839484 
0.635 0.756647 -0.0151215 0.0162242 0.653447 10.7271 27.2067 13.0307 12.5739 0.139585 0.00300977 -0.0122013 0.0278251 0.299337 2.89588 0.631355 0.0839919 
0.636 0.756549 -0.0151328 0.016233 0.65356 10.7396 27.2068 13.0307 12.5737 0.142543 0.00296426 -0.0121973 0.0278263 0.299218 2.89652 0.629188 0.0840346 
0.637 0.756451 -0.0151441 0.0162418 0.653673 10.7522 27.207 13.0307 12.5735 0.145501 0.00291868 -0.0121933 0.0278275 0.299098 2.89714 0.627017 0.0840765 
0.638 0.756353 -0.0151554 0.0162506 0.653786 10.7648 27.2071 13.0307 12.5733 0.148459 0.00287305 -0.0121892 0.0278286 0.298977 2.89772 0.624842 0.0841175 
0.639 0.756255 -0.0151666 0.0162594 0.653899 10.7773 27.2073 13.0307 12.5731 0.151418 0.00282734 -0.0121851 0.0278297 0.298855 2.89828 0.622662 0.0841578 
0.64 0.756157 -0.0151779 0.0162682 0.654012 10.7899 27.2074 13.0307 12.5729 0.154377 0.00278158 -0.0121809 0.0278308 0.298733 2.89881 0.620479 0.0841973 
0.641 0.756059 -0.0151892 0.016277 0.654125 10.8025 27.2076 13.0307 12.5727 0.157335 0.00273576 -0.0121768 0.0278317 0.29861 2.8993 0.618291 0.084236 
0.642 0.755961 -0.0152005 0.0162858 0.654237 10.8151 27.2077 13.0308 12.5725 0.160294 0.00268987 -0.0121726 0.0278327 0.298485 2.89978 0.616098 0.0842739 
0.643 0.755863 -0.0152118 0.0162946 0.65435 10.8276 27.2079 13.0308 12.5723 0.163253 0.00264393 -0.0121683 0.0278335 0.29836 2.90022 0.613902 0.084311 
0.644 0.755765 -0.015223 0.0163034 0.654463 10.8402 27.2081 13.0308 12.5721 0.166213 0.00259792 -0.0121641 0.0278344 0.298235 2.90063 0.611701 0.0843473 
0.645 0.755667 -0.0152343 0.0163122 0.654575 10.8528 27.2082 13.0308 12.5719 0.169172 0.00255185 -0.0121598 0.0278351 0.298108 2.90101 0.609496 0.0843827 
0.646 0.75557 -0.0152456 0.016321 0.654688 10.8654 27.2084 13.0308 12.5717 0.172131 0.00250573 -0.0121554 0.0278359 0.297981 2.90137 0.607287 0.0844174 
0.647 0.755472 -0.0152568 0.0163298 0.6548 10.8779 27.2086 13.0308 12.5715 0.17509 0.00245954 -0.0121511 0.0278366 0.297852 2.9017 0.605074 0.0844512 
0.648 0.755374 -0.0152681 0.0163387 0.654912 10.8905 27.2088 13.0308 12.5713 0.178049 0.0024133 -0.0121467 0.0278372 0.297723 2.90199 0.602856 0.0844842 
0.649 0.755276 -0.0152794 0.0163475 0.655025 10.9031 27.2089 13.0308 12.5712 0.181008 0.002367 -0.0121423 0.0278377 0.297593 2.90226 0.600635 0.0845164 
0.65 0.755178 -0.0152907 0.0163563 0.655137 10.9156 27.2091 13.0308 12.571 0.183967 0.00232064 -0.0121378 0.0278383 0.297462 2.9025 0.598409 0.0845477 
0.651 0.755081 -0.0153019 0.0163651 0.655249 10.9282 27.2093 13.0308 12.5708 0.186925 0.00227423 -0.0121333 0.0278387 0.297331 2.90271 0.596178 0.0845782 
0.652 0.754983 -0.0153132 0.0163739 0.655361 10.9408 27.2095 13.0308 12.5706 0.189884 0.00222776 -0.0121288 0.0278392 0.297198 2.90289 0.593944 0.0846079 
0.653 0.754885 -0.0153245 0.0163827 0.655473 10.9534 27.2097 13.0308 12.5704 0.192842 0.00218123 -0.0121242 0.0278395 0.297065 2.90304 0.591706 0.0846368 
0.654 0.754787 -0.0153357 0.0163915 0.655585 10.9659 27.2099 13.0308 12.5703 0.1958 0.00213465 -0.0121196 0.0278399 0.296931 2.90317 0.589463 0.0846648 
0.655 0.75469 -0.015347 0.0164003 0.655697 10.9785 27.2101 13.0308 12.5701 0.198758 0.00208801 -0.012115 0.0278401 0.296796 2.90326 0.587216 0.0846919 
0.656 0.754592 -0.0153583 0.0164091 0.655809 10.9911 27.2103 13.0308 12.5699 0.201716 0.00204132 -0.0121104 0.0278403 0.29666 2.90332 0.584965 0.0847182 
0.657 0.754495 -0.0153695 0.0164179 0.655921 11.0036 27.2105 13.0308 12.5697 0.204673 0.00199457 -0.0121057 0.0278405 0.296523 2.90336 0.582709 0.0847437 
0.658 0.754397 -0.0153808 0.0164268 0.656033 11.0162 27.2107 13.0308 12.5696 0.20763 0.00194777 -0.012101 0.0278406 0.296386 2.90336 0.58045 0.0847683 
0.659 0.7543 -0.015392 0.0164356 0.656144 11.0288 27.2109 13.0308 12.5694 0.210586 0.00190091 -0.0120962 0.0278407 0.296247 2.90333 0.578186 0.0847921 
0.66 0.754202 -0.0154033 0.0164444 0.656256 11.0413 27.2111 13.0308 12.5692 0.213542 0.00185401 -0.0120914 0.0278407 0.296108 2.90328 0.575918 0.084815 
0.661 0.754105 -0.0154146 0.0164532 0.656367 11.0539 27.2113 13.0308 12.5691 0.216498 0.00180705 -0.0120866 0.0278407 0.295968 2.90319 0.573646 0.0848371 
0.662 0.754007 -0.0154258 0.016462 0.656479 11.0665 27.2115 13.0308 12.5689 0.219453 0.00176004 -0.0120818 0.0278406 0.295827 2.90308 0.57137 0.0848583 
0.663 0.75391 -0.0154371 0.0164708 0.65659 11.079 27.2118 13.0308 12.5687 0.222408 0.00171298 -0.0120769 0.0278404 0.295686 2.90293 0.56909 0.0848786 
0.664 0.753812 -0.0154483 0.0164796 0.656701 11.0916 27.212 13.0308 12.5686 0.225362 0.00166586 -0.012072 0.0278403 0.295543 2.90276 0.566805 0.084898 
0.665 0.753715 -0.0154596 0.0164884 0.656813 11.1042 27.2122 13.0308 12.5684 0.228316 0.0016187 -0.0120671 0.02784 0.2954 2.90255 0.564516 0.0849166 
0.666 0.753618 -0.0154708 0.0164973 0.656924 11.1168 27.2124 13.0308 12.5682 0.231269 0.00157149 -0.0120621 0.0278397 0.295256 2.90232 0.562224 0.0849343 
0.667 0.75352 -0.0154821 0.0165061 0.657035 11.1293 27.2127 13.0308 12.5681 0.234221 0.00152423 -0.0120571 0.0278394 0.295111 2.90206 0.559926 0.0849512 
0.668 0.753423 -0.0154934 0.0165149 0.657146 11.1419 27.2129 13.0308 12.5679 0.237173 0.00147692 -0.012052 0.027839 0.294965 2.90176 0.557625 0.0849671 
0.669 0.753326 -0.0155046 0.0165237 0.657257 11.1545 27.2131 13.0308 12.5678 0.240124 0.00142956 -0.012047 0.0278385 0.294818 2.90144 0.55532 0.0849822 
0.67 0.753229 -0.0155159 0.0165325 0.657368 11.167 27.2134 13.0308 12.5676 0.243074 0.00138215 -0.0120419 0.0278381 0.294671 2.90108 0.55301 0.0849964 
0.671 0.753132 -0.0155271 0.0165413 0.657479 11.1796 27.2136 13.0308 12.5674 0.246024 0.0013347 -0.0120367 0.0278375 0.294522 2.90069 0.550697 0.0850097 
0.672 0.753034 -0.0155384 0.0165501 0.657589 11.1922 27.2139 13.0308 12.5673 0.248973 0.0012872 -0.0120316 0.0278369 0.294373 2.90028 0.548379 0.0850221 
0.673 0.752937 -0.0155496 0.0165589 0.6577 11.2047 27.2141 13.0308 12.5671 0.251921 0.00123965 -0.0120264 0.0278363 0.294223 2.89983 0.546057 0.0850337 
0.674 0.75284 -0.0155608 0.0165678 0.657811 11.2173 27.2144 13.0308 12.567 0.254869 0.00119206 -0.0120211 0.0278356 0.294072 2.89936 0.543731 0.0850443 
0.675 0.752743 -0.0155721 0.0165766 0.657921 11.2299 27.2146 13.0308 12.5668 0.257815 0.00114443 -0.0120159 0.0278348 0.29392 2.89885 0.541401 0.085054 
0.676 0.752646 -0.0155833 0.0165854 0.658032 11.2424 27.2149 13.0308 12.5667 0.260761 0.00109675 -0.0120106 0.027834 0.293768 2.89831 0.539067 0.0850628 
0.677 0.752549 -0.0155946 0.0165942 0.658142 11.255 27.2152 13.0308 12.5665 0.263705 0.00104902 -0.0120052 0.0278332 0.293614 2.89774 0.536728 0.0850707 
0.678 0.752452 -0.0156058 0.016603 0.658252 11.2676 27.2154 13.0308 12.5664 0.266649 0.00100125 -0.0119999 0.0278323 0.29346 2.89714 0.534386 0.0850778 
0.679 0.752355 -0.015617 0.0166118 0.658363 11.2801 27.2157 13.0308 12.5663 0.269592 0.000953441 -0.0119945 0.0278313 0.293305 2.89651 0.532039 0.0850839 
0.68 0.752259 -0.0156283 0.0166206 0.658473 11.2927 27.216 13.0308 12.5661 0.272534 0.000905587 -0.0119891 0.0278303 0.293149 2.89585 0.529688 0.085089 
0.681 0.752162 -0.0156395 0.0166294 0.658583 11.3053 27.2162 13.0308 12.566 0.275475 0.000857691 -0.0119836 0.0278293 0.292993 2.89516 0.527333 0.0850933 
0.682 0.752065 -0.0156508 0.0166382 0.658693 11.3178 27.2165 13.0308 12.5658 0.278414 0.000809754 -0.0119781 0.0278282 0.292835 2.89444 0.524974 0.0850967 
0.683 0.751968 -0.015662 0.0166471 0.658803 11.3304 27.2168 13.0308 12.5657 0.281353 0.000761776 -0.0119726 0.027827 0.292677 2.89368 0.522611 0.0850991 
0.684 0.751872 -0.0156732 0.0166559 0.658913 11.343 27.2171 13.0308 12.5656 0.284291 0.000713757 -0.011967 0.0278258 0.292517 2.8929 0.520244 0.0851006 
0.685 0.751775 -0.0156844 0.0166647 0.659023 11.3555 27.2174 13.0308 12.5654 0.287227 0.0006657 -0.0119615 0.0278245 0.292357 2.89208 0.517873 0.0851012 
0.686 0.751678 -0.0156957 0.0166735 0.659132 11.3681 27.2177 13.0308 12.5653 0.290162 0.000617602 -0.0119558 0.0278232 0.292196 2.89123 0.515497 0.0851008 
0.687 0.751582 -0.0157069 0.0166823 0.659242 11.3807 27.2179 13.0308 12.5652 0.293096 0.000569467 -0.0119502 0.0278219 0.292035 2.89036 0.513118 0.0850995 
0.688 0.751485 -0.0157181 0.0166911 0.659352 11.3932 27.2182 13.0308 12.565 0.296029 0.000521293 -0.0119445 0.0278205 0.291872 2.88945 0.510734 0.0850973 
0.689 0.751389 -0.0157293 0.0166999 0.659461 11.4058 27.2185 13.0308 12.5649 0.298961 0.000473082 -0.0119388 0.027819 0.291709 2.88851 0.508347 0.0850941 
0.69 0.751292 -0.0157406 0.0167087 0.659571 11.4183 27.2188 13.0308 12.5648 0.301891 0.000424834 -0.011933 0.0278175 0.291544 2.88753 0.505955 0.08509 
0.691 0.751196 -0.0157518 0.0167175 0.65968 11.4309 27.2191 13.0308 12.5646 0.30482 0.000376549 -0.0119272 0.0278159 0.291379 2.88653 0.503559 0.0850849 
0.692 0.751099 -0.015763 0.0167263 0.659789 11.4435 27.2194 13.0308 12.5645 0.307747 0.000328229 -0.0119214 0.0278143 0.291213 2.8855 0.501159 0.0850789 
0.693 0.751003 -0.0157742 0.0167351 0.659898 11.456 27.2198 13.0308 12.5644 0.310674 0.000279873 -0.0119156 0.0278127 0.291047 2.88443 0.498755 0.085072 
0.694 0.750906 -0.0157854 0.016744 0.660008 11.4686 27.2201 13.0308 12.5643 0.313598 0.000231483 -0.0119097 0.0278109 0.290879 2.88333 0.496347 0.0850641 
0.695 0.75081 -0.0157967 0.0167528 0.660117 11.4812 27.2204 13.0308 12.5641 0.316522 0.000183058 -0.0119038 0.0278092 0.290711 2.8822 0.493935 0.0850552 
0.696 0.750714 -0.0158079 0.0167616 0.660226 11.4937 27.2207 13.0308 12.564 0.319443 0.0001346 -0.0118978 0.0278074 0.290541 2.88104 0.491519 0.0850453 
0.697 0.750618 -0.0158191 0.0167704 0.660334 11.5063 27.221 13.0308 12.5639 0.322364 8.61093e-05 -0.0118919 0.0278055 0.290371 2.87985 0.489098 0.0850345 
0.698 0.750521 -0.0158303 0.0167792 0.660443 11.5189 27.2213 13.0308 12.5638 0.325282 3.7586e-05 -0.0118859 0.0278036 0.2902 2.87862 0.486674 0.0850228 
0.699 0.750425 -0.0158415 0.016788 0.660552 11.5314 27.2217 13.0308 12.5637 0.3282 -1.09692e-05 -0.0118798 0.0278016 0.290028 2.87736 0.484245 0.08501 
0.7 0.750329 -0.0158527 0.0167968 0.660661 11.544 27.222 13.0308 12.5636 0.331115 -5.95556e-05 -0.0118737 0.0277996 0.289856 2.87607 0.481813 0.0849963 
0.701 0.750233 -0.0158639 0.0168056 0.660769 11.5566 27.2223 13.0308 12.5634 0.334029 -0.000108173 -0.0118676 0.0277975 0.289682 2.87475 0.479377 0.0849817 
0.702 0.750137 -0.0158751 0.0168144 0.660878 11.5691 27.2227 13.0308 12.5633 0.336941 -0.00015682 -0.0118615 0.0277954 0.289508 2.8734 0.476936 0.084966 
0.703 0.750041 -0.0158863 0.0168232 0.660986 11.5817 27.223 13.0308 12.5632 0.339852 -0.000205496 -0.0118553 0.0277932 0.289333 2.87201 0.474491 0.0849493 
0.704 0.749945 -0.0158975 0.016832 0.661095 11.5942 27.2233 13.0308 12.5631 0.342761 -0.000254202 -0.0118491 0.027791 0.289157 2.8706 0.472043 0.0849317 
0.705 0.749849 -0.0159087 0.0168408 0.661203 11.6068 27.2237 13.0308 12.563 0.345668 -0.000302935 -0.0118429 0.0277887 0.28898 2.86915 0.46959 0.0849131 
0.706 0.749754 -0.0159199 0.0168496 0.661311 11.6194 27.224 13.0308 12.5629 0.348573 -0.000351697 -0.0118366 0.0277864 0.288803 2.86767 0.467133 0.0848935 
0.707 0.749658 -0.0159311 0.0168584 0.661419 11.6319 27.2244 13.0308 12.5628 0.351477 -0.000400485 -0.0118303 0.027784 0.288624 2.86615 0.464673 0.0848729 
0.708 0.749562 -0.0159423 0.0168672 0.661527 11.6445 27.2247 13.0308 12.5627 0.354378 -0.0004493 -0.011824 0.0277816 0.288445 2.86461 0.462208 0.0848513 
0.709 0.749466 -0.0159534 0.016876 0.661635 11.6571 27.2251 13.0308 12.5626 0.357278 -0.000498141 -0.0118176 0.0277791 0.288265 2.86303 0.459739 0.0848287 
0.71 0.749371 -0.0159646 0.0168848 0.661743 11.6696 27.2255 13.0308 12.5625 0.360176 -0.000547007 -0.0118112 0.0277766 0.288084 2.86141 0.457266 0.0848051 
0.711 0.749275 -0.0159758 0.0168936 0.661851 11.6822 27.2258 13.0308 12.5624 0.363072 -0.000595898 -0.0118048 0.027774 0.287902 2.85977 0.454789 0.0847805 
0.712 0.749179 -0.015987 0.0169024 0.661958 11.6947 27.2262 13.0308 12.5623 0.365966 -0.000644813 -0.0117983 0.0277714 0.287719 2.85809 0.452309 0.0847549 
0.713 0.749084 -0.0159982 0.0169112 0.662066 11.7073 27.2265 13.0308 12.5622 0.368857 -0.000693751 -0.0117918 0.0277687 0.287536 2.85638 0.449824 0.0847282 
0.714 0.748988 -0.0160093 0.01692 0.662174 11.7199 27.2269 13.0308 12.5621 0.371747 -0.000742712 -0.0117852 0.027766 0.287351 2.85464 0.447335 0.0847006 
0.715 0.748893 -0.0160205 0.0169288 0.662281 11.7324 27.2273 13.0308 12.562 0.374635 -0.000791696 -0.0117787 0.0277632 0.287166 2.85287 0.444842 0.0846719 
0.716 0.748798 -0.0160317 0.0169376 0.662388 11.745 27.2277 13.0308 12.5619 0.377521 -0.0008407 -0.0117721 0.0277604 0.28698 2.85106 0.442345 0.0846422 
0.717 0.748702 -0.0160429 0.0169464 0.662496 11.7576 27.228 13.0308 12.5618 0.380404 -0.000889726 -0.0117655 0.0277575 0.286793 2.84922 0.439844 0.0846115 
0.718 0.748607 -0.016054 0.0169552 0.662603 11.7701 27.2284 13.0308 12.5617 0.383285 -0.000938773 -0.0117588 0.0277545 0.286606 2.84735 0.437339 0.0845798 
0.719 0.748512 -0.0160652 0.016964 0.66271 11.7827 27.2288 13.0308 12.5617 0.386165 -0.000987839 -0.0117521 0.0277516 0.286417 2.84544 0.434831 0.084547 
0.72 0.748416 -0.0160764 0.0169728 0.662817 11.7952 27.2292 13.0308 12.5616 0.389041 -0.00103692 -0.0117454 0.0277485 0.286228 2.8435 0.432318 0.0845132 
0.721 0.748321 -0.0160875 0.0169816 0.662924 11.8078 27.2296 13.0308 12.5615 0.391916 -0.00108603 -0.0117386 0.0277454 0.286038 2.84153 0.429801 0.0844784 
0.722 0.748226 -0.0160987 0.0169903 0.663031 11.8204 27.23 13.0308 12.5614 0.394788 -0.00113515 -0.0117318 0.0277423 0.285847 2.83952 0.42728 0.0844425 
0.723 0.748131 -0.0161098 0.0169991 0.663138 11.8329 27.2304 13.0308 12.5613 0.397658 -0.00118429 -0.011725 0.0277391 0.285655 2.83748 0.424755 0.0844056 
0.724 0.748036 -0.016121 0.0170079 0.663244 11.8455 27.2308 13.0308 12.5612 0.400526 -0.00123344 -0.0117181 0.0277359 0.285462 2.83541 0.422227 0.0843676 
0.725 0.747941 -0.0161321 0.0170167 0.663351 11.858 27.2312 13.0308 12.5612 0.403391 -0.00128261 -0.0117112 0.0277326 0.285269 2.8333 0.419694 0.0843286 
0.726 0.747846 -0.0161433 0.0170255 0.663457 11.8706 27.2316 13.0308 12.5611 0.406254 -0.0013318 -0.0117043 0.0277292 0.285074 2.83117 0.417157 0.0842885 
0.727 0.747751 -0.0161544 0.0170343 0.663564 11.8832 27.232 13.0308 12.561 0.409114 -0.001381 -0.0116973 0.0277258 0.284879 2.82899 0.414616 0.0842474 
0.728 0.747656 -0.0161656 0.0170431 0.66367 11.8957 27.2324 13.0308 12.5609 0.411972 -0.00143022 -0.0116903 0.0277224 0.284683 2.82679 0.412072 0.0842052 
0.729 0.747562 -0.0161767 0.0170519 0.663776 11.9083 27.2328 13.0308 12.5609 0.414827 -0.00147944 -0.0116833 0.0277189 0.284486 2.82455 0.409523 0.084162 
0.73 0.747467 -0.0161879 0.0170606 0.663883 11.9209 27.2332 13.0308 12.5608 0.41768 -0.00152868 -0.0116763 0.0277154 0.284289 2.82227 0.406971 0.0841177 
0.731 0.747372 -0.016199 0.0170694 0.663989 11.9334 27.2337 13.0308 12.5607 0.42053 -0.00157794 -0.0116692 0.0277118 0.28409 2.81997 0.404414 0.0840723 
0.732 0.747278 -0.0162101 0.0170782 0.664095 11.946 27.2341 13.0308 12.5606 0.423377 -0.0016272 -0.011662 0.0277081 0.283891 2.81763 0.401854 0.0840258 
0.733 0.747183 -0.0162213 0.017087 0.664201 11.9585 27.2345 13.0308 12.5606 0.426222 -0.00167648 -0.0116549 0.0277044 0.283691 2.81525 0.399289 0.0839783 
0.734 0.747089 -0.0162324 0.0170958 0.664306 11.9711 27.2349 13.0308 12.5605 0.429064 -0.00172576 -0.0116477 0.0277007 0.283489 2.81284 0.396721 0.0839297 
0.735 0.746994 -0.0162435 0.0171045 0.664412 11.9837 27.2354 13.0308 12.5605 0.431904 -0.00177505 -0.0116405 0.0276969 0.283288 2.8104 0.394149 0.08388 
0.736 0.7469 -0.0162547 0.0171133 0.664518 11.9962 27.2358 13.0308 12.5604 0.43474 -0.00182436 -0.0116332 0.027693 0.283085 2.80793 0.391573 0.0838293 
0.737 0.746805 -0.0162658 0.0171221 0.664623 12.0088 27.2362 13.0308 12.5603 0.437574 -0.00187367 -0.0116259 0.0276891 0.282881 2.80541 0.388993 0.0837774 
0.738 0.746711 -0.0162769 0.0171309 0.664729 12.0213 27.2367 13.0308 12.5603 0.440405 -0.00192299 -0.0116186 0.0276852 0.282677 2.80287 0.386409 0.0837245 
0.739 0.746617 -0.016288 0.0171397 0.664834 12.0339 27.2371 13.0308 12.5602 0.443233 -0.00197231 -0.0116112 0.0276812 0.282472 2.80029 0.383821 0.0836705 
0.74 0.746523 -0.0162991 0.0171484 0.664939 12.0465 27.2376 13.0308 12.5602 0.446058 -0.00202164 -0.0116039 0.0276771 0.282266 2.79768 0.381229 0.0836153 
0.741 0.746428 -0.0163102 0.0171572 0.665045 12.059 27.238 13.0308 12.5601 0.448881 -0.00207098 -0.0115964 0.027673 0.282059 2.79503 0.378633 0.0835591 
0.742 0.746334 -0.0163213 0.017166 0.66515 12.0716 27.2385 13.0308 12.56 0.4517 -0.00212032 -0.011589 0.0276688 0.281851 2.79235 0.376033 0.0835018 
0.743 0.74624 -0.0163325 0.0171747 0.665255 12.0841 27.2389 13.0308 12.56 0.454516 -0.00216967 -0.0115815 0.0276646 0.281642 2.78964 0.37343 0.0834433 
0.744 0.746146 -0.0163436 0.0171835 0.66536 12.0967 27.2394 13.0308 12.5599 0.45733 -0.00221901 -0.011574 0.0276604 0.281433 2.78689 0.370822 0.0833838 
0.745 0.746052 -0.0163547 0.0171923 0.665464 12.1093 27.2398 13.0308 12.5599 0.46014 -0.00226836 -0.0115664 0.0276561 0.281223 2.7841 0.368211 0.0833231 
0.746 0.745958 -0.0163658 0.017201 0.665569 12.1218 27.2403 13.0308 12.5598 0.462947 -0.00231772 -0.0115588 0.0276517 0.281012 2.78128 0.365595 0.0832614 
0.747 0.745865 -0.0163768 0.0172098 0.665674 12.1344 27.2407 13.0308 12.5598 0.465751 -0.00236707 -0.0115512 0.0276473 0.2808 2.77843 0.362976 0.0831985 
0.748 0.745771 -0.0163879 0.0172186 0.665778 12.1469 27.2412 13.0308 12.5597 0.468552 -0.00241642 -0.0115436 0.0276428 0.280587 2.77554 0.360353 0.0831345 
0.749 0.745677 -0.016399 0.0172273 0.665883 12.1595 27.2417 13.0308 12.5597 0.47135 -0.00246578 -0.0115359 0.0276383 0.280374 2.77262 0.357726 0.0830693 
0.75 0.745584 -0.0164101 0.0172361 0.665987 12.1721 27.2422 13.0308 12.5597 0.474144 -0.00251513 -0.0115281 0.0276338 0.280159 2.76966 0.355095 0.0830031 
0.751 0.74549 -0.0164212 0.0172449 0.666091 12.1846 27.2426 13.0308 12.5596 0.476935 -0.00256448 -0.0115204 0.0276292 0.279944 2.76667 0.352461 0.0829357 
0.752 0.745396 -0.0164323 0.0172536 0.666196 12.1972 27.2431 13.0308 12.5596 0.479723 -0.00261383 -0.0115126 0.0276245 0.279728 2.76364 0.349822 0.0828671 
0.753 0.745303 -0.0164434 0.0172624 0.6663 12.2097 27.2436 13.0308 12.5595 0.482508 -0.00266318 -0.0115048 0.0276198 0.279511 2.76058 0.347179 0.0827975 
0.754 0.745209 -0.0164544 0.0172711 0.666404 12.2223 27.2441 13.0308 12.5595 0.485289 -0.00271252 -0.0114969 0.027615 0.279293 2.75748 0.344533 0.0827267 
0.755 0.745116 -0.0164655 0.0172799 0.666508 12.2349 27.2446 13.0307 12.5595 0.488067 -0.00276186 -0.011489 0.0276102 0.279074 2.75435 0.341883 0.0826547 
0.756 0.745023 -0.0164766 0.0172886 0.666611 12.2474 27.2451 13.0307 12.5594 0.490841 -0.00281119 -0.0114811 0.0276053 0.278855 2.75119 0.339229 0.0825816 
0.757 0.74493 -0.0164876 0.0172974 0.666715 12.26 27.2455 13.0307 12.5594 0.493612 -0.00286052 -0.0114732 0.0276004 0.278635 2.74798 0.336571 0.0825073 
0.758 0.744836 -0.0164987 0.0173062 0.666819 12.2725 27.246 13.0307 12.5594 0.496379 -0.00290984 -0.0114652 0.0275954 0.278414 2.74475 0.333909 0.0824319 
0.759 0.744743 -0.0165098 0.0173149 0.666922 12.2851 27.2465 13.0307 12.5594 0.499143 -0.00295915 -0.0114572 0.0275904 0.278192 2.74147 0.331243 0.0823554 
0.76 0.74465 -0.0165208 0.0173237 0.667026 12.2977 27.247 13.0307 12.5593 0.501904 -0.00300846 -0.0114491 0.0275853 0.277969 2.73816 0.328574 0.0822777 
0.761 0.744557 -0.0165319 0.0173324 0.667129 12.3102 27.2475 13.0307 12.5593 0.50466 -0.00305775 -0.011441 0.0275802 0.277745 2.73482 0.3259 0.0821988 
0.762 0.744464 -0.0165429 0.0173411 0.667232 12.3228 27.248 13.0307 12.5593 0.507413 -0.00310704 -0.0114329 0.027575 0.277521 2.73144 0.323223 0.0821187 
0.763 0.744371 -0.016554 0.0173499 0.667335 12.3353 27.2486 13.0307 12.5593 0.510163 -0.00315632 -0.0114247 0.0275698 0.277296 2.72803 0.320542 0.0820375 
0.764 0.744278 -0.016565 0.0173586 0.667438 12.3479 27.2491 13.0307 12.5592 0.512908 -0.00320558 -0.0114166 0.0275645 0.277069 2.72458 0.317857 0.0819551 
0.765 0.744186 -0.0165761 0.0173674 0.667541 12.3604 27.2496 13.0307 12.5592 0.51565 -0.00325483 -0.0114083 0.0275592 0.276842 2.72109 0.315169 0.0818715 
0.766 0.744093 -0.0165871 0.0173761 0.667644 12.373 27.2501 13.0307 12.5592 0.518388 -0.00330407 -0.0114001 0.0275538 0.276615 2.71757 0.312476 0.0817868 
0.767 0.744 -0.0165981 0.0173849 0.667747 12.3856 27.2506 13.0307 12.5592 0.521122 -0.0033533 -0.0113918 0.0275484 0.276386 2.71402 0.30978 0.0817008 
0.768 0.743908 -0.0166092 0.0173936 0.667849 12.3981 27.2511 13.0307 12.5592 0.523853 -0.00340252 -0.0113835 0.0275429 0.276157 2.71042 0.30708 0.0816137 
0.769 0.743815 -0.0166202 0.0174023 0.667952 12.4107 27.2517 13.0307 12.5591 0.526579 -0.00345172 -0.0113751 0.0275374 0.275926 2.7068 0.304376 0.0815254 
0.77 0.743723 -0.0166312 0.0174111 0.668054 12.4232 27.2522 13.0307 12.5591 0.529302 -0.0035009 -0.0113667 0.0275318 0.275695 2.70313 0.301668 0.0814359 
0.771 0.74363 -0.0166422 0.0174198 0.668157 12.4358 27.2527 13.0307 12.5591 0.532021 -0.00355007 -0.0113583 0.0275262 0.275463 2.69943 0.298957 0.0813452 
0.772 0.743538 -0.0166533 0.0174285 0.668259 12.4484 27.2533 13.0307 12.5591 0.534735 -0.00359922 -0.0113499 0.0275205 0.27523 2.69569 0.296241 0.0812533 
